{
  "resourceType": "Bundle",
  "id": "esempio-ricerca-rivalutazioni",
  "type": "searchset",
  "timestamp": "2023-01-01T10:36:03Z",
  "total": 1,
  "entry": [
    {
      "fullUrl": "ServiceRequest/a07c4faa-98a7-11ed-a8fc-0242ac120002",
      "resource": {
        "resourceType": "ServiceRequest",
        "id": "a07c4faa-98a7-11ed-a8fc-0242ac120002",
        "meta": {
          "lastUpdated": "2023-01-01T10:36:03Z",
          "profile": [
            "https://fhir.siss.regione.lombardia.it/StructureDefinition/RLServiceRequestRivalutazione"
          ],
          "versionId": "1"
        },
        "identifier": [
          {
            "value": "0300780000001_R000001"
          }
        ],
        "basedOn": [
          {
            "reference": "CarePlan/365db2ec-973c-11ed-a8fc-0242ac120002",
            "display": "CarePlan Progetto Individuale"
          }
        ],
        "requisition": {
          "value": "1234567890"
        },
        "status": "active",
        "intent": "proposal",
        "subject": {
          "reference": "Patient/b7807e00-9745-11ed-a8fc-0242ac120002",
          "display": "Mario Rossi"
        },
        "occurrenceDateTime": "2022-02-02"
      },
      "search": {
        "mode": "match"
      }
    },
    {
      "fullUrl": "CarePlan/365db2ec-973c-11ed-a8fc-0242ac120002",
      "resource": {
        "resourceType": "CarePlan",
        "id": "365db2ec-973c-11ed-a8fc-0242ac120002",
        "meta": {
          "lastUpdated": "2023-01-11T08:32:56.239+01:00",
          "profile": [
            "https://fhir.siss.regione.lombardia.it/StructureDefinition/RLCarePlanProgettoIndividuale"
          ],
          "versionId": "1"
        },
        "identifier": [
          {
            "value": "PI-2023000000001"
          }
        ],
        "status": "active",
        "intent": "order",
        "subject": {
          "reference": "Patient/b7807e00-9745-11ed-a8fc-0242ac120002",
          "display": "Mario Rossi"
        },
        "encounter": {
          "reference": "Encounter/c559333c-974f-11ed-a8fc-0242ac120002",
          "display": "Accesso"
        },
        "period": {
          "start": "2023-01-15T08:32:56.239+01:00"
        },
        "created": "2023-01-11T08:32:56.239+01:00",
        "author": {
          "reference": "Organization/c8f77b34-974f-11ed-a8fc-0242ac120002",
          "display": "ASST DELLA BRIANZA"
        },
        "contributor": [
          {
            "reference": "PractitionerRole/d711fc58-974f-11ed-a8fc-0242ac120002",
            "display": "Infermiere"
          }
        ],
        "addresses": [
          {
            "reference": "Condition/e243606c-974f-11ed-a8fc-0242ac120002",
            "display": "Patologia Primaria"
          },
          {
            "reference": "Condition/e028bc4c-b134-11ed-afa1-0242ac120002",
            "display": "Patologia Secondara"
          }
        ],
        "supportingInfo": [
          {
            "reference": "Observation/bnm18194-974f-11ed-a8fc-0242ac120002",
            "display": "Esito Valutazione"
          }
        ],
        "goal": [
          {
            "reference": "Goal/eaa18194-974f-11ed-a8fc-0242ac120002",
            "display": "Obiettivi Salute"
          }
        ],
        "activity": [
          {
            "reference": {
              "reference": "MedicationRequest/088c489c-9750-11ed-a8fc-0242ac120002",
              "display": "Terapia farmacologica"
            }
          },
          {
            "reference": {
              "reference": "ServiceRequest/14aec1c2-9750-11ed-a8fc-0242ac120002",
              "display": "Servizi Socio Assistenziali"
            }
          }
        ],
        "note": [
          {
            "text": "Monitorare il soddisfacimento dell'obiettivo di salute almeno una volta al mese"
          }
        ],
        "extension": [
          {
            "url": "https://fhir.siss.regione.lombardia.it/StructureDefinition/RLCarePlanVersionePAI",
            "valueUnsignedInt": 1
          }
        ]
      },
      "search": {
        "mode": "include"
      }
    },
    {
      "fullUrl": "Patient/b7807e00-9745-11ed-a8fc-0242ac120002",
      "resource": {
        "resourceType": "Patient",
        "id": "b7807e00-9745-11ed-a8fc-0242ac120002",
        "meta": {
          "lastUpdated": "2023-01-01T10:36:03Z",
          "profile": [
            "https://fhir.siss.regione.lombardia.it/StructureDefinition/RLPatientCittadino"
          ],
          "versionId": "1"
        },
        "identifier": [
          {
            "system": "http://hl7.it/sid/codiceFiscale",
            "value": "RSSMRA80A01F205X"
          }
        ],
        "active": true,
        "name": [
          {
            "family": "Rossi",
            "given": [
              "Mario"
            ]
          }
        ],
        "gender": "male",
        "birthDate": "1980-01-01",
        "address": [
          {
            "use": "billing",
            "city": "015146"
          }
        ],
        "maritalStatus": {
          "coding": [
            {
              "system": "https://fhir.siss.regione.lombardia.it/ValueSet/SIAD-StatoCivile",
              "code": "2",
              "display": "Coniugato/a"
            }
          ]
        },
        "generalPractitioner": [
          {
            "reference": "PractitionerRole/0bfe5406-9751-11ed-a8fc-0242ac120002",
            "display": "Medico Prescrittore"
          }
        ],
        "extension": [
          {
            "url": "https://fhir.siss.regione.lombardia.it/StructureDefinition/RLPatientCittadinanza",
            "valueCode": "ITA"
          },
          {
            "url": "https://fhir.siss.regione.lombardia.it/StructureDefinition/RLPatientTitoloDiStudio",
            "valueCodeableConcept": {
              "coding": [
                {
                  "system": "https://fhir.siss.regione.lombardia.it/ValueSet/SIAD-TitoloStudio",
                  "code": "6",
                  "display": "Laurea"
                }
              ]
            }
          },
          {
            "url": "https://fhir.siss.regione.lombardia.it/StructureDefinition/RLPatientPosizioneDellaProfessione",
            "valueCodeableConcept": {
              "coding": [
                {
                  "system": "https://fhir.siss.regione.lombardia.it/ValueSet/SIAD-PosizioneProfessione",
                  "code": "01",
                  "display": "imprenditore"
                }
              ]
            }
          },
          {
            "url": "https://fhir.siss.regione.lombardia.it/StructureDefinition/RLPatientSituazionePensionistica",
            "valueCodeableConcept": {
              "coding": [
                {
                  "system": "https://fhir.siss.regione.lombardia.it/ValueSet/SIAD-SituazionePensionistica",
                  "code": "5",
                  "display": "Invalidità"
                }
              ]
            }
          },
          {
            "url": "https://fhir.siss.regione.lombardia.it/StructureDefinition/RLPatientLuogoDiNascita",
            "valueCode": "015146"
          },
          {
            "url": "https://fhir.siss.regione.lombardia.it/StructureDefinition/RLPatientATSResidenza",
            "valueCode": "030321"
          },
          {
            "url": "https://fhir.siss.regione.lombardia.it/StructureDefinition/RLPatientTipologiaCittadino",
            "valueCodeableConcept": {
              "coding": [
                {
                  "system": "https://fhir.siss.regione.lombardia.it/ValueSet/SIAD-CondizioneClinica",
                  "code": "1",
                  "display": "Paziente ordinario: utenza tipica"
                }
              ]
            }
          }
        ]
      },
      "search": {
        "mode": "include"
      }
    }
  ]
}