{
  "resourceType": "Bundle",
  "id": "esempio-ricerca-rivalutazioni-sospensioni",
  "type": "searchset",
  "timestamp": "2023-06-25T10:36:03Z",
  "total": 2,
  "entry":  [
      {
          "fullUrl": "ServiceRequest/a07c4faa-98a7-11ed-a8fc-0242ac120002",
          "resource": {
              "resourceType": "ServiceRequest",
              "id": "a07c4faa-98a7-11ed-a8fc-0242ac120002",
              "meta": {
                  "lastUpdated": "2023-06-25T10:36:03Z",
                  "profile":  [
                      "https://fhir.siss.regione.lombardia.it/StructureDefinition/RLServiceRequestRivalutazione"
                  ],
                  "versionId": "1"
              },
              "identifier":  [
                  {
          "system": "https://fhir.siss.regione.lombardia.it/sid/identificativoRichiestaRivalutazionePaziente",
                      "value": "0300780000001_R000001"
                  }
              ],
              "basedOn":  [
                  {
                      "reference": "CarePlan/365db2ec-973c-11ed-a8fc-0242ac120002",
                      "display": "CarePlan Progetto Individuale"
                  }
              ],
              "requisition": {
                  "value": "2023900018"
              },
              "status": "active",
              "intent": "proposal",
              "subject": {
                  "reference": "Patient/b7807e00-9745-11ed-a8fc-0242ac120002",
                  "display": "CITTADINO SEI"
              },
              "occurrenceDateTime": "2022-02-02",
      "note":  [
                  {
                      "text": "Condizioni di salute peggiorate"
                  }
              ]
          },
          "search": {
              "mode": "match"
          }
      },
      {
          "fullUrl": "ServiceRequest/883ffc6a-98a8-11ed-a8fc-0242ac120002",
          "resource": {
              "resourceType": "ServiceRequest",
              "id": "883ffc6a-98a8-11ed-a8fc-0242ac120002",
              "meta": {
                  "lastUpdated": "2023-01-01T10:36:03Z",
                  "profile":  [
                      "https://fhir.siss.regione.lombardia.it/StructureDefinition/RLServiceRequestSospensioneADI"
                  ],
                  "versionId": "1"
              },
              "identifier":  [
                  {
          "system": "https://fhir.siss.regione.lombardia.it/sid/identificativoSospensioneTemporanea",
                      "value": "0300780000001_S000002"
                  }
              ],
              "basedOn":  [
                  {
                      "reference": "CarePlan/365db2ec-973c-11ed-a8fc-0242ac120002",
                      "display": "CarePlan Progetto Individuale"
                  }
              ],
              "requisition": {
                  "value": "2023900018"
              },
              "status": "on-hold",
              "intent": "directive",
              "subject": {
                  "reference": "Patient/b7807e00-9745-11ed-a8fc-0242ac120002",
                  "display": "CITTADINO SEI"
              },
              "occurrencePeriod": {
                  "start": "2022-01-01",
                  "end": "2023-02-01"
              },
              "reasonCode":  [
                  {
                      "coding":  [
                          {
                              "system": "https://fhir.siss.regione.lombardia.it/ValueSet/SIAD-MotiviSospensione",
                              "code": "1",
                              "display": "Ricovero in ospedale"
                          }
                      ]
                  }
              ]
          },
          "search": {
              "mode": "match"
          }
      },
      {
          "fullUrl": "CarePlan/365db2ec-973c-11ed-a8fc-0242ac120002",
          "resource": {
              "resourceType": "CarePlan",
              "id": "365db2ec-973c-11ed-a8fc-0242ac120002",
              "meta": {
                  "lastUpdated": "2023-01-11T08:32:56.239+01:00",
                  "profile":  [
                      "https://fhir.siss.regione.lombardia.it/StructureDefinition/RLCarePlanProgettoIndividuale"
                  ],
                  "versionId": "1"
              },
              "identifier":  [
                  {
          "system": "https://fhir.siss.regione.lombardia.it/sid/identificativoUnivocoPI",
                      "value": "PI-202390000002"
                  }
              ],
              "status": "active",
              "intent": "order",
              "subject": {
                  "reference": "Patient/b7807e00-9745-11ed-a8fc-0242ac120002",
                  "display": "CITTADINO SEI"
              },
              "encounter": {
                  "reference": "Encounter/c559333c-974f-11ed-a8fc-0242ac120002",
                  "display": "Accesso"
              },
              "period": {
                  "start": "2023-01-15T08:32:56.239+01:00"
              },
              "created": "2023-01-11T08:32:56.239+01:00",
              "author": {
                  "reference": "Organization/c8f77b34-974f-11ed-a8fc-0242ac120002",
                  "display": "ASST SACCO"
              },
              "contributor":  [
                  {
                      "reference": "PractitionerRole/d711fc58-974f-11ed-a8fc-0242ac120002",
                      "display": "Infermiere"
                  }
              ],
              "addresses":  [
                  {
                      "reference": "Condition/e243606c-974f-11ed-a8fc-0242ac120002",
                      "display": "Patologia Primaria"
                  },
                  {
                      "reference": "Condition/e028bc4c-b134-11ed-afa1-0242ac120002",
                      "display": "Patologia Secondaria"
                  }
              ],
              "supportingInfo":  [
                  {
                      "reference": "Observation/bnm18194-974f-11ed-a8fc-0242ac120002",
                      "display": "Esito Valutazione"
                  }
              ],
              "goal":  [
                  {
                      "reference": "Goal/eaa18194-974f-11ed-a8fc-0242ac120002",
                      "display": "Obiettivi Salute"
                  }
              ],
              "activity":  [
                  {
                      "reference": {
                          "reference": "ServiceRequest/d99a530e-f43a-4c1f-ade8-89dd43ec5dd5-1",
                          "display": "Servizi Socio Assistenziali"
                      }
                  },
                  {
                      "reference": {
                          "reference": "ServiceRequest/d99a530e-f43a-4c1f-ade8-89dd43ec5dd5-2",
                          "display": "Servizi Socio Assistenziali"
                      }
                  }
              ],
              "note":  [
                  {
                      "text": "Monitorare il soddisfacimento dell'obiettivo di salute almeno una volta al mese"
                  }
              ],
              "extension":  [
                  {
                      "url": "https://fhir.siss.regione.lombardia.it/StructureDefinition/RLCarePlanVersionePAI",
                      "valueUnsignedInt": 1
                  }
              ]
          },
          "search": {
              "mode": "include"
          }
      },
      {
          "fullUrl": "Patient/b7807e00-9745-11ed-a8fc-0242ac120002",
          "resource": {
              "resourceType": "Patient",
              "id": "b7807e00-9745-11ed-a8fc-0242ac120002",
              "meta": {
                  "lastUpdated": "2023-01-01T10:36:03Z",
                  "profile":  [
                      "https://fhir.siss.regione.lombardia.it/StructureDefinition/RLPatientCittadino"
                  ],
                  "versionId": "1"
              },
              "identifier":  [
                  {
                      "system": "http://hl7.it/sid/codiceFiscale",
                      "value": "CTTSEI82A01G188Y"
                  }
              ],
              "active": true,
              "name":  [
                  {
                      "family": "CITTADINO",
                      "given":  [
                          "SEI"
                      ]
                  }
              ],
              "gender": "male",
              "birthDate": "1981-01-01",
              "address": [
                  {
                      "use": "billing",
                      "city": "015146",
                      "country": "100"
                  },
                  {
                      "use": "home",
                      "line": [
                          "Via Adda 7 - Scala B - Piano 3 - Interno A"
                      ],
                      "city": "015146",
                      "postalCode": "20124",
                      "country": "100"
                  }
              ],
              "maritalStatus": {
                  "coding":  [
                      {
                          "system": "https://fhir.siss.regione.lombardia.it/ValueSet/SIAD-StatoCivile",
                          "code": "2",
                          "display": "Coniugato/a"
                      }
                  ]
              },
              "generalPractitioner":  [
                  {
                      "reference": "PractitionerRole/0bfe5406-9751-11ed-a8fc-0242ac120002",
                      "display": "Medico Prescrittore"
                  }
              ],
              "extension":  [
                  {
                      "url": "https://fhir.siss.regione.lombardia.it/StructureDefinition/RLPatientCittadinanza",
                      "valueCode": "100"
                  },
                  {
                      "url": "https://fhir.siss.regione.lombardia.it/StructureDefinition/RLPatientTitoloDiStudio",
                      "valueCodeableConcept": {
                          "coding":  [
                              {
                                  "system": "https://fhir.siss.regione.lombardia.it/ValueSet/SIAD-TitoloStudio",
                                  "code": "6",
                                  "display": "Laurea"
                              }
                          ]
                      }
                  },
                  {
                      "url": "https://fhir.siss.regione.lombardia.it/StructureDefinition/RLPatientPosizioneDellaProfessione",
                      "valueCodeableConcept": {
                          "coding":  [
                              {
                                  "system": "https://fhir.siss.regione.lombardia.it/ValueSet/SIAD-PosizioneProfessione",
                                  "code": "01",
                                  "display": "imprenditore"
                              }
                          ]
                      }
                  },
                  {
                      "url": "https://fhir.siss.regione.lombardia.it/StructureDefinition/RLPatientSituazionePensionistica",
                      "valueCodeableConcept": {
                          "coding":  [
                              {
                                  "system": "https://fhir.siss.regione.lombardia.it/ValueSet/SIAD-SituazionePensionistica",
                                  "code": "5",
                                  "display": "Invalidità"
                              }
                          ]
                      }
                  },
                  {
                      "url": "https://fhir.siss.regione.lombardia.it/StructureDefinition/RLPatientLuogoDiNascita",
                      "valueCode": "015146"
                  }
              ]
          },
          "search": {
              "mode": "include"
          }
      }
  ]
}