{
    "resourceType": "Bundle",
    "id": "bundle-recupero-allergie-farmaceutiche",
    "identifier": {
      "assigner": {
        "display": "Regione Lombardia"
      },
      "system": "urn:oid:2.16.840.1.113883.2.9.2.30",
      "value": "2.16.840.1.113883.2.7.5.1000000"
    },
    "meta": {
      "lastUpdated": "2024-09-25T10:50:34Z"
    },
    "timestamp": "2024-09-25T12:00:00+00:00",
    "type": "document",
    "entry": [
        {
            "resourceType": "Provenance",
            "id": "esempio-provenance-ldo",
            "recorded": "2024-05-12",
            "target": [
                {
                "reference": "Observation/esempio-observation-ldo"
                }
            ],
            "agent": [
                {
                "type": {
                    "coding": [
                    {
                        "system": "http://hl7.org/fhir/ValueSet/provenance-agent-type",
                        "code": "legal",
                        "display": "Legal Authenticator"
                    }
                    ]
                },
                "who": {
                    "reference": "Practitioner/esempio-practitioner-core-ldo"
                }
                },
                {
                    "type": {
                    "coding": [
                    {
                        "system": "http://hl7.org/fhir/ValueSet/provenance-agent-type",
                        "code": "custodian",
                        "display": "Custodian"
                    }
                    ]
                },
                "who": {
                    "reference": "Organization/esempio-organization-core-ldo"
                }
                },
                {
                "type": {
                    "coding": [
                    {
                        "system": "http://hl7.org/fhir/ValueSet/provenance-agent-type",
                        "code": "author",
                        "display": "Author"
                    }
                    ]
                },
                "who": {
                    "reference": "PractitionerRole/esempio-practitionerRole-core-ldo"
                }
                },
                {
                "type": {
                    "coding": [
                    {
                        "system": "http://hl7.org/fhir/ValueSet/provenance-agent-type",
                        "code": "COPART",
                        "display": "co-participant"
                    }
                    ]
                },
                "who": {
                    "reference": "Practitioner/esempio-practitioner-core-ldo"
                }
                }
            ],
            "entity": [
                {
                "role": "source",
                "what": {
                    "identifier": [
                        {
                            "system": "urn:oid:2.16.840.1.113883.2.9.2.99.4.4",
                            "value": "idCDA2root"
                        }
                    ]
                }
                }
            ]
        },
        {
            "resourceType": "AllergyIntolerance",
            "id": "esempio-allergia-farmaci-ldo",
            "clinicalStatus": {
                "coding": [
                    {
                        "system": "http://terminology.hl7.org/CodeSystem/allergyintolerance-clinical",
                        "code": "active",
                        "display": "Active"
                    }
                ]
            },
            "type": "allergy",
            "category": [
                "medication"
            ],
            "criticality": "high",
            "code": {
                "coding": [
                    {
                        "system": "https://fhir.siss.regione.lombardia.it/ValueSet/DDC-FarmacoAIC",
                        "code": "J01CE01",
                        "display": "BENZILPENICILLINA POTASSICA K24 PHARMACEUTICALS"
                    }
                ]
            },
            "patient": {
                "reference": "Patient/e06086d8-a958-11ed-afa1-0242ac120002"
            },
            "onsetPeriod": {
                "start": "2010-03-01"
            },
            "recordedDate": "2010-03-01T14:58:00+11:00",
            "lastOccurrence": "2021-06-01",
            "note": [
                {
                    "text": "Il paziente presenta prurito diffuso e un evidente eritema con sfogo cutaneo localizzato su braccia e torace."
                }
            ],
            "reaction": [
                {
                    "substance": {
                        "coding": [
                            {
                                "system": "https://fhir.siss.regione.lombardia.it/ValueSet/DDC-FarmacoAIC",
                                "code": "J01CE01",
                                "display": "BENZILPENICILLINA POTASSICA K24 PHARMACEUTICALS"
                            }
                        ]
                    },
                    "manifestation": [
                        {
                            "coding": [
                                {
                                    "system": "http://snomed.info/sct",
                                    "code": "247472004",
                                    "display": "Hives"
                                }
                            ]
                        }
                    ],
                    "onset": "2010-03-01"
                }
            ]
        },
        {
            "resourceType": "Patient",
            "id": "esempio-patient-ldo",
            "meta": {
            "lastUpdated": "2023-01-11T08:32:56+01:00",
            "profile": [
            "https://fhir.siss.regione.lombardia.it/StructureDefinition/RLPatientCore"
            ],
            "versionId": "1"
            },
            "identifier": [
            {
                "use": "usual",
                "type": {
                "coding": [
                    {
                    "system": "http://terminology.hl7.org/CodeSystem/v2-0203",
                    "code": "MR"
                    }
                ]
                },
                "system": "urn:oid:1.2.36.146.595.217.0.1",
                "value": "12345",
                "period": {
                "start": "2001-05-06"
                },
                "assigner": {
                "display": "Acme Healthcare"
                }
            }
            ],
            "name": [
            {
                "use": "official",
                "family": "Chalmers",
                "given": [
                "Peter",
                "James"
                ]
            },
            {
                "use": "usual",
                "given": [
                "Jim"
                ]
            },
            {
                "use": "maiden",
                "family": "Windsor",
                "given": [
                "Peter",
                "James"
                ],
                "period": {
                "end": "2002"
                }
            }
            ],
            "telecom": [
            {
                "use": "home"
            },
            {
                "system": "phone",
                "value": "(03) 5555 6473",
                "use": "work",
                "rank": 1
            },
            {
                "system": "phone",
                "value": "(03) 3410 5613",
                "use": "mobile",
                "rank": 2
            },
            {
                "system": "phone",
                "value": "(03) 5555 8834",
                "use": "old",
                "period": {
                "end": "2014"
                }
            }
            ],
            "gender": "male",
            "birthDate": "1974-12-25",
            "deceasedBoolean": false,
            "address": [
            {
                "use": "home",
                "type": "both",
                "text": "534 Erewhon St PeasantVille, Rainbow, Vic  3999",
                "line": [
                "534 Erewhon St"
                ],
                "city": "PleasantVille",
                "district": "Rainbow",
                "state": "Vic",
                "postalCode": "3999",
                "period": {
                "start": "1974-12-25"
                }
            }
            ],
            "contact": [
            {
                "relationship": [
                {
                    "coding": [
                    {
                        "system": "http://terminology.hl7.org/CodeSystem/v2-0131",
                        "code": "N"
                    }
                    ]
                }
                ],
                "name": [
                    {
                        "family": "Rossi",
                        "given": [
                            "Mario"
                        ]
                    }
                ]
            }
            ],
            "maritalStatus": {
                "coding": [
                {
                "system": "http://terminology.hl7.org/CodeSystem/v3-MaritalStatus",
                "code": "M",
                "display": "Married"
                }
            ]
            },
            "generalPractitioner": {
                "reference": "PractitionerRole/esempio-PractitionerRole-core"
            }
        },
        {
            "resourceType": "Organization",
            "id": "esempio-organization-core-ldo",
            "meta": {
            "lastUpdated": "2022-03-30T10:36:03.000+00:00",
            "profile": [
              "https://fhir.siss.regione.lombardia.it/StructureDefinition/RLOrganizationCore"
            ]
            },
            "identifier": [
              {
                "system": "https://www.hl7.it/fhir/terminology/ValueSet/minsan-idStrutture",
                "value": "030712"
              }
            ],
            "name": "Clinical Lab",
            "active": 1,
            "address": [
              {
                "city": "Roma",
                "line": [
                  "via Roma 1"
                ]
              }
            ],
            "telecom": [
              {
                "system": "phone",
                "value": "+1 555 234 1234"
              },
              {
                "system": "email",
                "value": "contact@labs.acme.org"
              }
            ],
            "partOf": {
              "reference": "Organization/esempio-Organization-core"
            }
        },
        {
            "resourceType": "PractitionerRole",
            "id": "esempio-practitionerRole-core-ldo",
            "meta": {
            "lastUpdated": "2023-01-11T08:32:56+01:00",
            "profile": [
              "https://fhir.siss.regione.lombardia.it/StructureDefinition/RLPractitionerRoleCore"
            ],
            "versionId": "1"
            },
            "identifier": [
                {
                    "system": "http://hl7.it/sid/codiceFiscale",
                    "value": "PROVAX00X00X000Y"
                },
                {
                    "system": "https://fhir.siss.regione.lombardia.it/CodeSystem/HL7"
                }
            ],
            "active": "true",
            "period": {
                "start": "2012-01-01",
                "end": "2013-03-31"
            },
            "practitioner": {
                "reference": "Practitioner/esempio-practitioner-core-ldo"
            },
            "organization": {
                "reference": "Organization/esempio-organization-core-ldo"
            },
            "code": [
                {
                  "coding": [
                    {
                      "system": "http://terminology.hl7.org/CodeSystem/v2-0286",
                      "code": "RP"
                    }
                  ]
                }
            ]
        },
        {
            "resourceType": "Practitioner",
            "id": "esempio-practitioner-core-ldo",
            "meta": {
            "lastUpdated": "2023-01-11T08:32:56+01:00",
            "profile": [
              "https://fhir.siss.regione.lombardia.it/StructureDefinition/RLPractitionerCore"
            ],
            "versionId": "1"
            },
            "identifier": [
                {
                    "system": "http://hl7.it/sid/codiceFiscale",
                    "value": "PROVAX00X00X000Y"
                },
                {
                    "system": "https://fhir.siss.regione.lombardia.it/CodeSystem/HL7",
                    "value": "123456"
                },
                {
                    "system": "http://www.acme.com/identifiers/patient"
                }
            ],
            "address": [
                {
                    "city": "Roma",
                    "line": [
                        "via Roma 1"
                    ],
                    "postalCode": "00184",
                    "use": "home"
                }
            ],
            "name": [
                {
                    "family": "Esempio",
                    "given": [
                        "Test"
                    ]
                }
            ]
        }
    ]
}