{
	"resourceType": "Bundle",
	"id": "esempio-ricerca-pi-attivi",
	"type": "searchset",
	"total": 1,
	"link": [
		{
			"relation": "self",
			"url": "http://localhost:8480/api/enlist/fhir/CarePlan?_include=*&_lastUpdated=gt2000-01-01T16%3A00%3A00%2000%3A00&_lastUpdated=lt2030-01-01T16%3A00%3A00%2000%3A00&_profile=https%3A%2F%2Ffhir.siss.regione.lombardia.it%2FStructureDefinition%2FRLCarePlanProgettoIndividuale&activity-reference%3AServiceRequest.code=C-DOM&author%3AOrganization.identifier=030703&status=active"
		}
	],
	"entry": [
		{
			"fullUrl": "http://localhost:8480/api/enlist/fhir/CarePlan/ea1c5d21-cf5b-49c8-bd6c-8f2f416cc42e",
			"resource": {
				"resourceType": "CarePlan",
				"id": "ea1c5d21-cf5b-49c8-bd6c-8f2f416cc42e",
				"meta": {
					"versionId": "1",
					"lastUpdated": "2023-06-07T18:01:15.747+02:00",
					"profile": [
						"https://fhir.siss.regione.lombardia.it/StructureDefinition/RLCarePlanProgettoIndividuale"
					]
				},
				"extension": [
					{
						"url": "https://fhir.siss.regione.lombardia.it/StructureDefinition/RLCarePlanVersionePAI",
						"valueUnsignedInt": 10
					}
				],
				"identifier": [
					{
						"system": "https://fhir.siss.regione.lombardia.it/sid/identificativoUnivocoPI",
						"value": "PI-202300000102"
					}
				],
				"status": "active",
				"intent": "order",
				"subject": {
					"reference": "Patient/84373e3d-26c4-40dd-a844-f52f18ba279f",
					"display": "Mario Rossi"
				},
				"encounter": {
					"reference": "Encounter/HC40-ENLIST.f40a1962-f13f-b14f-2ab0-b18bdd3e5b68",
					"display": "Accesso"
				},
				"period": {
					"start": "2023-03-28T06:00:00+02:00",
					"end": "2023-04-29T06:00:00+02:00"
				},
				"created": "2023-06-01T11:04:28+02:00",
				"author": {
					"reference": "Organization/a2b672cc-2b27-4cc3-8c9c-6acdf4c6aeea",
					"display": "ASST FATEBENEFRATELLI SACCO"
				},
				"contributor": [
					{
						"reference": "PractitionerRole/4a8f0841-fd6d-46bb-9e10-2b3904996f53-1",
						"display": "Infermiere"
					}
				],
				"addresses": [
					{
						"reference": "Condition/53d24d4d-9b8c-4ddd-b7f4-8832898507ab",
						"display": "Patologia Primaria"
					},
					{
						"reference": "Condition/1760b4e1-b080-4530-b12a-02bf2c003bfb",
						"display": "Patologia Secondaria"
					},
					{
						"reference": "Condition/c2ca8f32-286c-4233-91cf-5b382c3655b4",
						"display": "Patologia Secondaria"
					},
					{
						"reference": "Condition/9ea44e83-a2af-43c8-8562-0b73f3679530",
						"display": "Patologia Addizionale"
					},
					{
						"reference": "Condition/e84f46e5-9e71-49e5-89aa-96efbb59e4aa",
						"display": "Problema Infermieristico"
					}
				],
				"supportingInfo": [
					{
						"reference": "Observation/1683107592742-64787-2-1",
						"display": "Esito Valutazione"
					},
					{
						"reference": "Observation/1683107657974-51919-3-1",
						"display": "Esito Valutazione"
					},
					{
						"reference": "Observation/190436-170550-1681465565556-1",
						"display": "Esito Valutazione"
					}
				],
				"goal": [
					{
						"reference": "Goal/c73537aa-ea82-4922-a8b0-89d7d7c32399",
						"display": "Obiettivi Salute"
					},
					{
						"reference": "Goal/e5367610-abf5-4acc-9cab-e788479a68eb",
						"display": "Obiettivi Salute"
					}
				],
				"activity": [
					{
						"reference": {
							"reference": "ServiceRequest/d99a530e-f43a-4c1f-ade8-89dd43ec5dd5-1",
							"display": "Servizio Socio Assistenziale"
						}
					},
					{
						"reference": {
							"reference": "ServiceRequest/d99a530e-f43a-4c1f-ade8-89dd43ec5dd5-2",
							"display": "Servizio Socio Assistenziale"
						}
					},
					{
						"reference": {
							"reference": "ServiceRequest/AEE3F728-435F-C793-60C6-FDA2DA310285",
							"display": "Prestazione Specialistica"
						}
					},
					{
						"reference": {
							"reference": "ServiceRequest/0F2BBB76-1ED0-CFA6-E983-7004BD4C1F62",
							"display": "Prestazione Specialistica"
						}
					},
					{
						"reference": {
							"reference": "ServiceRequest/c5c2ab67-7de8-45f8-8483-d0e602ba595e",
							"display": "Prestazione Infermieristica"
						}
					},
					{
						"reference": {
							"reference": "MedicationRequest/b9e59ad5-9147-4e37-a3e7-1d6cc43f62e4",
							"display": "Ossigenoterapia"
						}
					},
					{
						"reference": {
							"reference": "MedicationRequest/bec63903-5e38-4eae-9d08-c8eff4b73a13",
							"display": "Terapia Farmacologica"
						}
					},
					{
						"reference": {
							"reference": "ServiceRequest/8924c6d7-ab57-4e33-b281-2739a284d824",
							"display": "Intervento Educazionale"
						}
					},
					{
						"reference": {
							"reference": "DeviceRequest/6edf64b4-1594-4b99-ae1a-2d1bf90fea9b",
							"display": "Protesi Ausili"
						}
					}
				]
			}
		},
		{
			"fullUrl": "http://localhost:8480/api/enlist/fhir/Patient/84373e3d-26c4-40dd-a844-f52f18ba279f",
			"resource": {
				"resourceType": "Patient",
				"id": "84373e3d-26c4-40dd-a844-f52f18ba279f",
				"meta": {
					"versionId": "1",
					"lastUpdated": "2000-01-01T00:00:00.000+01:00",
					"profile": [
						"https://fhir.siss.regione.lombardia.it/StructureDefinition/RLPatientCittadino"
					]
				},
				"text": {
					"status": "generated"
				},
				"extension": [
					{
						"url": "https://fhir.siss.regione.lombardia.it/StructureDefinition/RLPatientCittadinanza",
						"valueCode": "100"
					},
					{
						"url": "https://fhir.siss.regione.lombardia.it/StructureDefinition/RLPatientTitoloDiStudio",
						"valueCodeableConcept": {
							"coding": [
								{
									"code": "6",
									"display": "LAUREA"
								}
							]
						}
					},
					{
						"url": "https://fhir.siss.regione.lombardia.it/StructureDefinition/RLPatientPosizioneDellaProfessione",
						"valueCodeableConcept": {
							"coding": [
								{
									"code": "11",
									"display": "DISOCCUPATO (ATTUALMENTE)"
								}
							]
						}
					},
					{
						"url": "https://fhir.siss.regione.lombardia.it/StructureDefinition/RLPatientSituazionePensionistica",
						"valueCodeableConcept": {
							"coding": [
								{
									"code": "6",
									"display": "2 O PIU TIPOLOGIE DI PENSIONE"
								}
							]
						}
					},
					{
						"url": "https://fhir.siss.regione.lombardia.it/StructureDefinition/RLPatientLuogoDiNascita",
						"valueCode": "015146"
					}
				],
				"identifier": [
					{
						"system": "http://hl7.it/sid/codiceFiscale",
						"value": "RSSMRA80A24F205I"
					}
				],
				"name": [
					{
						"family": "Rossi",
						"given": [
							"Mario"
						]
					}
				],
				"gender": "male",
				"birthDate": "1980-01-24",
				"address": [
					{
						"use": "billing",
						"city": "015146",
						"country": "100"
					},
					{
						"use": "home",
						"line": [
							"Via Adda 7 - Scala B - Piano 3 - Interno A"
						],
						"city": "015146",
						"postalCode": "20124",
						"country": "100"
					}
				],
				"maritalStatus": {
					"coding": [
						{
							"code": "1",
							"display": "CELIBE/NUBILE"
						}
					]
				},
				"generalPractitioner": [
					{
						"reference": "Organization/52e47e7c6fd07a60fe580fda555d0444958861aa7a1b05dcc0820b89df92a836"
					},
					{
						"reference": "PractitionerRole/c3195c68-f12e-4a7b-87c5-9b111201a397"
					}
				]
			}
		},
		{
			"fullUrl": "http://localhost:8480/api/enlist/fhir/Organization/52e47e7c6fd07a60fe580fda555d0444958861aa7a1b05dcc0820b89df92a836",
			"resource": {
				"resourceType": "Organization",
				"id": "52e47e7c6fd07a60fe580fda555d0444958861aa7a1b05dcc0820b89df92a836",
				"meta": {
					"versionId": "1",
					"lastUpdated": "2000-01-01T00:00:00.000+01:00",
					"profile": [
						"https://fhir.siss.regione.lombardia.it/StructureDefinition/RLOrganizationL1"
					]
				},
				"extension": [
					{
						"url": "https://fhir.siss.regione.lombardia.it/StructureDefinition/RLOrganizationDataInsert",
						"valueDate": "2000-01-01"
					},
					{
						"url": "https://fhir.siss.regione.lombardia.it/StructureDefinition/RLOrganizationDataInizioValidita",
						"valueDate": "2000-01-01"
					}
				],
				"identifier": [
					{
						"system": "https://fhir.siss.regione.lombardia.it/sid/codiceIdentificativoEnte",
						"value": "030321"
					}
				],
				"type": [
					{
						"coding": [
							{
								"system": "https://fhir.siss.regione.lombardia.it/ValueSet/DDC-DescL1",
								"code": "ATS",
								"display": "Agenzia di Tutela della Salute"
							}
						]
					}
				],
				"name": "ATS DELLA CITTA' METROPOLITANA DI MILANO"
			}
		},
		{
			"fullUrl": "http://localhost:8480/api/enlist/fhir/PractitionerRole/c3195c68-f12e-4a7b-87c5-9b111201a397",
			"resource": {
				"resourceType": "PractitionerRole",
				"id": "c3195c68-f12e-4a7b-87c5-9b111201a397",
				"meta": {
					"versionId": "1",
					"lastUpdated": "2000-01-01T00:00:00.000+01:00",
					"profile": [
						"https://fhir.siss.regione.lombardia.it/StructureDefinition/RLPractitionerRoleMedicoPrescrittore"
					]
				},
				"identifier": [
					{
						"system": "https://fhir.siss.regione.lombardia.it/sid/codiceRegionaleMedicoPrescrittore",
						"value": "12345"
					}
				],
				"active": true,
				"practitioner": {
					"reference": "Practitioner/c3195c68-f12e-4a7b-87c5-9b111201a397-1"
				},
				"code": [
					{
						"coding": [
							{
								"code": "F",
								"display": "Medico di medicina generale"
							}
						]
					}
				]
			}
		},
		{
			"fullUrl": "http://localhost:8480/api/enlist/fhir/Practitioner/c3195c68-f12e-4a7b-87c5-9b111201a397-1",
			"resource": {
				"resourceType": "Practitioner",
				"id": "c3195c68-f12e-4a7b-87c5-9b111201a397-1",
				"meta": {
					"versionId": "1",
					"lastUpdated": "2000-01-01T00:00:00.000+01:00",
					"profile": [
						"https://fhir.siss.regione.lombardia.it/StructureDefinition/RLPractitionerMedicoPrescrittore"
					]
				},
				"identifier": [
					{
						"system": "http://hl7.it/sid/codiceFiscale",
						"value": "DFMMDC80A24F205B"
					}
				],
				"name": [
					{
						"family": "DI FAMIGLIA",
						"given": [
							"MEDICO"
						]
					}
				],
				"telecom": [
					{
						"system": "phone",
						"value": "3452323456"
					}
				],
				"qualification": [
					{
						"code": {
							"coding": [
								{
									"code": "F",
									"display": "Medico di medicina generale"
								}
							]
						}
					}
				]
			}
		},
		{
			"fullUrl": "http://localhost:8480/api/enlist/fhir/Encounter/HC40-ENLIST.f40a1962-f13f-b14f-2ab0-b18bdd3e5b68",
			"resource": {
				"resourceType": "Encounter",
				"id": "HC40-ENLIST.f40a1962-f13f-b14f-2ab0-b18bdd3e5b68",
				"meta": {
					"versionId": "1",
					"lastUpdated": "2000-01-01T00:00:00.000+01:00",
					"profile": [
						"https://fhir.siss.regione.lombardia.it/StructureDefinition/RLEncounterAccesso"
					]
				},
				"identifier": [
					{
						"system": "https://fhir.siss.regione.lombardia.it/sid/identificativoUnivocoAccesso",
						"value": "SOC-202300000066"
					}
				],
				"status": "in-progress",
				"class": {
					"system": "https://fhir.siss.regione.lombardia.it/ValueSet/SGDT-TipologiaAccesso",
					"code": "ACCSS",
					"display": "Socio-Sanitario"
				},
				"subject": {
					"reference": "Patient/84373e3d-26c4-40dd-a844-f52f18ba279f",
					"display": "Mario Rossi"
				},
				"period": {
					"start": "2023-03-29T13:57:13+02:00"
				},
				"reasonCode": [
					{
						"coding": [
							{
								"system": "https://fhir.siss.regione.lombardia.it/ValueSet/SGDT-MotivoSegnalazione",
								"code": "02",
								"display": "Attivazione Cure Domiciliari (ADI)"
							}
						]
					}
				],
				"serviceProvider": {
					"reference": "Organization/a2b672cc-2b27-4cc3-8c9c-6acdf4c6aeea",
					"display": "ASST FATEBENEFRATELLI SACCO"
				}
			}
		},
		{
			"fullUrl": "http://localhost:8480/api/enlist/fhir/Organization/a2b672cc-2b27-4cc3-8c9c-6acdf4c6aeea",
			"resource": {
				"resourceType": "Organization",
				"id": "a2b672cc-2b27-4cc3-8c9c-6acdf4c6aeea",
				"meta": {
					"versionId": "1",
					"lastUpdated": "2000-01-01T00:00:00.000+01:00",
					"profile": [
						"https://fhir.siss.regione.lombardia.it/StructureDefinition/RLOrganizationL1"
					]
				},
				"extension": [
					{
						"url": "https://fhir.siss.regione.lombardia.it/StructureDefinition/RLOrganizationDataInsert",
						"valueDate": "2000-01-01"
					},
					{
						"url": "https://fhir.siss.regione.lombardia.it/StructureDefinition/RLOrganizationDataInizioValidita",
						"valueDate": "2000-01-01"
					}
				],
				"identifier": [
					{
						"system": "https://fhir.siss.regione.lombardia.it/sid/codiceIdentificativoEnte",
						"value": "030703"
					},
					{
						"system": "http://hl7.it/sid/codiceFiscale",
						"value": "09319690963"
					}
				],
				"type": [
					{
						"coding": [
							{
								"system": "https://fhir.siss.regione.lombardia.it/ValueSet/DDC-DescL1",
								"code": "AO",
								"display": "Azienda Ospedaliera"
							}
						]
					}
				],
				"name": "ASST FATEBENEFRATELLI SACCO",
				"address": [
					{
						"use": "work",
						"type": "physical",
						"line": [
							"VIA G.B. GRASSI N. 74"
						],
						"district": "MI",
						"state": "LOMBARDIA",
						"postalCode": "20157",
						"extension": [
							{
								"url": "https://fhir.siss.regione.lombardia.it/StructureDefinition/RLOrganizationAddressIstatCode",
								"valueString": "015146"
							}
						]
					}
				],
				"extension": [
					{
						"url": "https://fhir.siss.regione.lombardia.it/StructureDefinition/RLOrganizationDataCostituzione",
						"valueDate": "2016-01-01"
					},
					{
						"url": "https://fhir.siss.regione.lombardia.it/StructureDefinition/RLOrganizationDataCessazione",
						"valueDate": "9999-12-31"
					},
					{
						"url": "https://fhir.siss.regione.lombardia.it/StructureDefinition/RLOrganizationDataInsert",
						"valueDate": "2016-02-11"
					},
					{
						"url": "https://fhir.siss.regione.lombardia.it/StructureDefinition/RLOrganizationDataUpdate",
						"valueDate": "9999-12-31"
					},
					{
						"url": "https://fhir.siss.regione.lombardia.it/StructureDefinition/RLOrganizationDataInizioValidita",
						"valueDate": "2016-01-01"
					},
					{
						"url": "https://fhir.siss.regione.lombardia.it/StructureDefinition/RLOrganizationDataFineValidita",
						"valueDate": "9999-12-31"
					}
				]
			}
		},
		{
			"fullUrl": "http://localhost:8480/api/enlist/fhir/PractitionerRole/4a8f0841-fd6d-46bb-9e10-2b3904996f53-1",
			"resource": {
				"resourceType": "PractitionerRole",
				"id": "4a8f0841-fd6d-46bb-9e10-2b3904996f53-1",
				"meta": {
					"versionId": "1",
					"lastUpdated": "2023-03-01T00:00:00.000+01:00",
					"profile": [
						"https://fhir.siss.regione.lombardia.it/StructureDefinition/RLPractitionerRoleProfessionistaSanitario"
					]
				},
				"period": {
					"start": "2023-03-01T00:00:00+01:00",
					"end": "2023-12-31T23:59:59+01:00"
				},
				"practitioner": {
					"reference": "Practitioner/4a8f0841-fd6d-46bb-9e10-2b3904996f53",
					"display": "Demo Infermiere"
				},
				"organization": {
					"reference": "Organization/a2b672cc-2b27-4cc3-8c9c-6acdf4c6aeea",
					"display": "ASST FATEBENEFRATELLI SACCO"
				},
				"code": [
					{
						"coding": [
							{
								"system": "https://fhir.siss.regione.lombardia.it/ValueSet/SGDT-QualificaProfessionistaSanitario",
								"code": "PROFSAN03",
								"display": "Infermiere"
							}
						]
					}
				]
			}
		},
		{
			"fullUrl": "http://localhost:8480/api/enlist/fhir/Organization/8c4259b0-f97f-11ed-a481-0050569fd9f1",
			"resource": {
				"resourceType": "Organization",
				"id": "8c4259b0-f97f-11ed-a481-0050569fd9f1",
				"meta": {
					"lastUpdated": "2023-06-05T09:35:32Z",
					"profile": [
						"https://fhir.siss.regione.lombardia.it/StructureDefinition/RLOrganizationL2"
					],
					"versionId": "8"
				},
				"active": true,
				"identifier": [
					{
						"system": "https://fhir.siss.regione.lombardia.it/sid/identificativoUnivocoCredenziale",
						"value": "321091908"
					},
					{
						"system": "https://fhir.siss.regione.lombardia.it/sid/codiceMinisterialePresidio",
						"value": "091908"
					}
				],
				"type": [
					{
						"coding": [
							{
								"system": "https://fhir.siss.regione.lombardia.it/CodeSystem/TipoStruttura",
								"code": "C-DOM",
								"display": "CURE DOMICILIARI"
							}
						]
					}
				],
				"name": "NUOVA SAIR",
				"telecom": [
					{
						"system": "phone",
						"value": "0236763540"
					},
					{
						"system": "url",
						"value": "NUOVASAIR.MI@NUOVASAIR.IT"
					}
				],
				"address": [
					{
						"use": "work",
						"type": "physical",
						"line": [
							"VIA EMILIO CORNALIA,10"
						],
						"city": "MILANO",
						"district": "MI",
						"postalCode": "20124",
						"extension": [
							{
								"url": "https://fhir.siss.regione.lombardia.it/StructureDefinition/RLOrganizationAddressIstatCode",
								"valueString": "015146"
							},
							{
								"url": "https://fhir.siss.regione.lombardia.it/StructureDefinition/RLOrganizationDistrettoTerritoriale",
								"extension": [
									{
										"url": "codiceDistretto",
										"valueCodeableConcept": {
											"coding": [
												{
													"system": "https://fhir.siss.regione.lombardia.it/ValueSet/DDC-DistrettoSanitario",
													"code": "22109",
													"display": "MUNICIPIO 9"
												}
											]
										}
									},
									{
										"url": "ASSTAfferenza",
										"valueCodeableConcept": {
											"coding": [
												{
													"system": "https://fhir.siss.regione.lombardia.it/ValueSet/DDC-ASSTAfferenza",
													"code": "030701",
													"display": "ASST GRANDE OSPEDALE METROPOLITANO NIGUARDA"
												}
											]
										}
									},
									{
										"url": "ATSAfferenza",
										"valueCodeableConcept": {
											"coding": [
												{
													"system": "https://fhir.siss.regione.lombardia.it/ValueSet/DDC-ATSAfferenza",
													"code": "030321",
													"display": "ATS DELLA CITTA' METROPOLITANA DI MILANO"
												}
											]
										}
									}
								]
							}
						]
					}
				],
				"partOf": {
					"reference": "Organization/80a99d30-d5df-11ec-af94-02001700b287"
				},
				"extension": [
					{
						"url": "https://fhir.siss.regione.lombardia.it/StructureDefinition/RLOrganizationDataInsert",
						"valueDate": "2023-05-19"
					},
					{
						"url": "https://fhir.siss.regione.lombardia.it/StructureDefinition/RLOrganizationDataUpdate",
						"valueDate": "9999-12-31"
					},
					{
						"url": "https://fhir.siss.regione.lombardia.it/StructureDefinition/RLOrganizationDataInizioValidita",
						"valueDate": "2022-12-02"
					},
					{
						"url": "https://fhir.siss.regione.lombardia.it/StructureDefinition/RLOrganizationDataFineValidita",
						"valueDate": "9999-12-31"
					},
					{
						"url": "https://fhir.siss.regione.lombardia.it/StructureDefinition/RLOrganizationDataCostituzione",
						"valueDate": "2022-12-02"
					},
					{
						"url": "https://fhir.siss.regione.lombardia.it/StructureDefinition/RLOrganizationDataCessazione",
						"valueDate": "9999-12-31"
					},
					{
						"url": "https://fhir.siss.regione.lombardia.it/StructureDefinition/RLOrganizationDistrettoAccreditamento",
						"extension": [
							{
								"url": "codiceDistretto",
								"valueCodeableConcept": {
									"coding": [
										{
											"system": "https://fhir.siss.regione.lombardia.it/ValueSet/DDC-DistrettoSanitario",
											"code": "22006",
											"display": "GARBAGNATESE"
										}
									]
								}
							},
							{
								"url": "ASSTAfferenza",
								"valueCodeableConcept": {
									"coding": [
										{
											"system": "https://fhir.siss.regione.lombardia.it/ValueSet/DDC-ASSTAfferenza",
											"code": "030706",
											"display": "ASST RHODENSE"
										}
									]
								}
							},
							{
								"url": "ATSAfferenza",
								"valueCodeableConcept": {
									"coding": [
										{
											"system": "https://fhir.siss.regione.lombardia.it/ValueSet/DDC-ATSAfferenza",
											"code": "030321",
											"display": "ATS DELLA CITTA' METROPOLITANA DI MILANO"
										}
									]
								}
							}
						]
					},
					{
						"url": "https://fhir.siss.regione.lombardia.it/StructureDefinition/RLOrganizationDistrettoAccreditamento",
						"extension": [
							{
								"url": "codiceDistretto",
								"valueCodeableConcept": {
									"coding": [
										{
											"system": "https://fhir.siss.regione.lombardia.it/ValueSet/DDC-DistrettoSanitario",
											"code": "22004",
											"display": "MAGENTINO"
										}
									]
								}
							},
							{
								"url": "ASSTAfferenza",
								"valueCodeableConcept": {
									"coding": [
										{
											"system": "https://fhir.siss.regione.lombardia.it/ValueSet/DDC-ASSTAfferenza",
											"code": "030705",
											"display": "ASST OVEST MILANESE"
										}
									]
								}
							},
							{
								"url": "ATSAfferenza",
								"valueCodeableConcept": {
									"coding": [
										{
											"system": "https://fhir.siss.regione.lombardia.it/ValueSet/DDC-ATSAfferenza",
											"code": "030321",
											"display": "ATS DELLA CITTA' METROPOLITANA DI MILANO"
										}
									]
								}
							}
						]
					},
					{
						"url": "https://fhir.siss.regione.lombardia.it/StructureDefinition/RLOrganizationDistrettoAccreditamento",
						"extension": [
							{
								"url": "codiceDistretto",
								"valueCodeableConcept": {
									"coding": [
										{
											"system": "https://fhir.siss.regione.lombardia.it/ValueSet/DDC-DistrettoSanitario",
											"code": "22003",
											"display": "LEGNANESE"
										}
									]
								}
							},
							{
								"url": "ASSTAfferenza",
								"valueCodeableConcept": {
									"coding": [
										{
											"system": "https://fhir.siss.regione.lombardia.it/ValueSet/DDC-ASSTAfferenza",
											"code": "030705",
											"display": "ASST OVEST MILANESE"
										}
									]
								}
							},
							{
								"url": "ATSAfferenza",
								"valueCodeableConcept": {
									"coding": [
										{
											"system": "https://fhir.siss.regione.lombardia.it/ValueSet/DDC-ATSAfferenza",
											"code": "030321",
											"display": "ATS DELLA CITTA' METROPOLITANA DI MILANO"
										}
									]
								}
							}
						]
					},
					{
						"url": "https://fhir.siss.regione.lombardia.it/StructureDefinition/RLOrganizationDistrettoAccreditamento",
						"extension": [
							{
								"url": "codiceDistretto",
								"valueCodeableConcept": {
									"coding": [
										{
											"system": "https://fhir.siss.regione.lombardia.it/ValueSet/DDC-DistrettoSanitario",
											"code": "22002",
											"display": "CASTANESE"
										}
									]
								}
							},
							{
								"url": "ASSTAfferenza",
								"valueCodeableConcept": {
									"coding": [
										{
											"system": "https://fhir.siss.regione.lombardia.it/ValueSet/DDC-ASSTAfferenza",
											"code": "030705",
											"display": "ASST OVEST MILANESE"
										}
									]
								}
							},
							{
								"url": "ATSAfferenza",
								"valueCodeableConcept": {
									"coding": [
										{
											"system": "https://fhir.siss.regione.lombardia.it/ValueSet/DDC-ATSAfferenza",
											"code": "030321",
											"display": "ATS DELLA CITTA' METROPOLITANA DI MILANO"
										}
									]
								}
							}
						]
					},
					{
						"url": "https://fhir.siss.regione.lombardia.it/StructureDefinition/RLOrganizationDistrettoAccreditamento",
						"extension": [
							{
								"url": "codiceDistretto",
								"valueCodeableConcept": {
									"coding": [
										{
											"system": "https://fhir.siss.regione.lombardia.it/ValueSet/DDC-DistrettoSanitario",
											"code": "22109",
											"display": "MUNICIPIO 9"
										}
									]
								}
							},
							{
								"url": "ASSTAfferenza",
								"valueCodeableConcept": {
									"coding": [
										{
											"system": "https://fhir.siss.regione.lombardia.it/ValueSet/DDC-ASSTAfferenza",
											"code": "030701",
											"display": "ASST GRANDE OSPEDALE METROPOLITANO NIGUARDA"
										}
									]
								}
							},
							{
								"url": "ATSAfferenza",
								"valueCodeableConcept": {
									"coding": [
										{
											"system": "https://fhir.siss.regione.lombardia.it/ValueSet/DDC-ATSAfferenza",
											"code": "030321",
											"display": "ATS DELLA CITTA' METROPOLITANA DI MILANO"
										}
									]
								}
							}
						]
					},
					{
						"url": "https://fhir.siss.regione.lombardia.it/StructureDefinition/RLOrganizationDistrettoAccreditamento",
						"extension": [
							{
								"url": "codiceDistretto",
								"valueCodeableConcept": {
									"coding": [
										{
											"system": "https://fhir.siss.regione.lombardia.it/ValueSet/DDC-DistrettoSanitario",
											"code": "22101",
											"display": "MUNICIPIO 1"
										}
									]
								}
							},
							{
								"url": "ASSTAfferenza",
								"valueCodeableConcept": {
									"coding": [
										{
											"system": "https://fhir.siss.regione.lombardia.it/ValueSet/DDC-ASSTAfferenza",
											"code": "030703",
											"display": "ASST FATEBENEFRATELLI SACCO"
										}
									]
								}
							},
							{
								"url": "ATSAfferenza",
								"valueCodeableConcept": {
									"coding": [
										{
											"system": "https://fhir.siss.regione.lombardia.it/ValueSet/DDC-ATSAfferenza",
											"code": "030321",
											"display": "ATS DELLA CITTA' METROPOLITANA DI MILANO"
										}
									]
								}
							}
						]
					},
					{
						"url": "https://fhir.siss.regione.lombardia.it/StructureDefinition/RLOrganizationDistrettoAccreditamento",
						"extension": [
							{
								"url": "codiceDistretto",
								"valueCodeableConcept": {
									"coding": [
										{
											"system": "https://fhir.siss.regione.lombardia.it/ValueSet/DDC-DistrettoSanitario",
											"code": "22102",
											"display": "MUNICIPIO 2"
										}
									]
								}
							},
							{
								"url": "ASSTAfferenza",
								"valueCodeableConcept": {
									"coding": [
										{
											"system": "https://fhir.siss.regione.lombardia.it/ValueSet/DDC-ASSTAfferenza",
											"code": "030703",
											"display": "ASST FATEBENEFRATELLI SACCO"
										}
									]
								}
							},
							{
								"url": "ATSAfferenza",
								"valueCodeableConcept": {
									"coding": [
										{
											"system": "https://fhir.siss.regione.lombardia.it/ValueSet/DDC-ATSAfferenza",
											"code": "030321",
											"display": "ATS DELLA CITTA' METROPOLITANA DI MILANO"
										}
									]
								}
							}
						]
					},
					{
						"url": "https://fhir.siss.regione.lombardia.it/StructureDefinition/RLOrganizationDistrettoAccreditamento",
						"extension": [
							{
								"url": "codiceDistretto",
								"valueCodeableConcept": {
									"coding": [
										{
											"system": "https://fhir.siss.regione.lombardia.it/ValueSet/DDC-DistrettoSanitario",
											"code": "22103",
											"display": "MUNICIPIO 3"
										}
									]
								}
							},
							{
								"url": "ASSTAfferenza",
								"valueCodeableConcept": {
									"coding": [
										{
											"system": "https://fhir.siss.regione.lombardia.it/ValueSet/DDC-ASSTAfferenza",
											"code": "030703",
											"display": "ASST FATEBENEFRATELLI SACCO"
										}
									]
								}
							},
							{
								"url": "ATSAfferenza",
								"valueCodeableConcept": {
									"coding": [
										{
											"system": "https://fhir.siss.regione.lombardia.it/ValueSet/DDC-ATSAfferenza",
											"code": "030321",
											"display": "ATS DELLA CITTA' METROPOLITANA DI MILANO"
										}
									]
								}
							}
						]
					},
					{
						"url": "https://fhir.siss.regione.lombardia.it/StructureDefinition/RLOrganizationDistrettoAccreditamento",
						"extension": [
							{
								"url": "codiceDistretto",
								"valueCodeableConcept": {
									"coding": [
										{
											"system": "https://fhir.siss.regione.lombardia.it/ValueSet/DDC-DistrettoSanitario",
											"code": "22104",
											"display": "MUNICIPIO 4"
										}
									]
								}
							},
							{
								"url": "ASSTAfferenza",
								"valueCodeableConcept": {
									"coding": [
										{
											"system": "https://fhir.siss.regione.lombardia.it/ValueSet/DDC-ASSTAfferenza",
											"code": "030703",
											"display": "ASST FATEBENEFRATELLI SACCO"
										}
									]
								}
							},
							{
								"url": "ATSAfferenza",
								"valueCodeableConcept": {
									"coding": [
										{
											"system": "https://fhir.siss.regione.lombardia.it/ValueSet/DDC-ATSAfferenza",
											"code": "030321",
											"display": "ATS DELLA CITTA' METROPOLITANA DI MILANO"
										}
									]
								}
							}
						]
					},
					{
						"url": "https://fhir.siss.regione.lombardia.it/StructureDefinition/RLOrganizationDistrettoAccreditamento",
						"extension": [
							{
								"url": "codiceDistretto",
								"valueCodeableConcept": {
									"coding": [
										{
											"system": "https://fhir.siss.regione.lombardia.it/ValueSet/DDC-DistrettoSanitario",
											"code": "22107",
											"display": "MUNICIPIO 7"
										}
									]
								}
							},
							{
								"url": "ASSTAfferenza",
								"valueCodeableConcept": {
									"coding": [
										{
											"system": "https://fhir.siss.regione.lombardia.it/ValueSet/DDC-ASSTAfferenza",
											"code": "030702",
											"display": "ASST SANTI PAOLO E CARLO"
										}
									]
								}
							},
							{
								"url": "ATSAfferenza",
								"valueCodeableConcept": {
									"coding": [
										{
											"system": "https://fhir.siss.regione.lombardia.it/ValueSet/DDC-ATSAfferenza",
											"code": "030321",
											"display": "ATS DELLA CITTA' METROPOLITANA DI MILANO"
										}
									]
								}
							}
						]
					},
					{
						"url": "https://fhir.siss.regione.lombardia.it/StructureDefinition/RLOrganizationDistrettoAccreditamento",
						"extension": [
							{
								"url": "codiceDistretto",
								"valueCodeableConcept": {
									"coding": [
										{
											"system": "https://fhir.siss.regione.lombardia.it/ValueSet/DDC-DistrettoSanitario",
											"code": "22108",
											"display": "MUNICIPIO 8"
										}
									]
								}
							},
							{
								"url": "ASSTAfferenza",
								"valueCodeableConcept": {
									"coding": [
										{
											"system": "https://fhir.siss.regione.lombardia.it/ValueSet/DDC-ASSTAfferenza",
											"code": "030703",
											"display": "ASST FATEBENEFRATELLI SACCO"
										}
									]
								}
							},
							{
								"url": "ATSAfferenza",
								"valueCodeableConcept": {
									"coding": [
										{
											"system": "https://fhir.siss.regione.lombardia.it/ValueSet/DDC-ATSAfferenza",
											"code": "030321",
											"display": "ATS DELLA CITTA' METROPOLITANA DI MILANO"
										}
									]
								}
							}
						]
					},
					{
						"url": "https://fhir.siss.regione.lombardia.it/StructureDefinition/RLOrganizationDistrettoAccreditamento",
						"extension": [
							{
								"url": "codiceDistretto",
								"valueCodeableConcept": {
									"coding": [
										{
											"system": "https://fhir.siss.regione.lombardia.it/ValueSet/DDC-DistrettoSanitario",
											"code": "22106",
											"display": "MUNICIPIO 6"
										}
									]
								}
							},
							{
								"url": "ASSTAfferenza",
								"valueCodeableConcept": {
									"coding": [
										{
											"system": "https://fhir.siss.regione.lombardia.it/ValueSet/DDC-ASSTAfferenza",
											"code": "030702",
											"display": "ASST SANTI PAOLO E CARLO"
										}
									]
								}
							},
							{
								"url": "ATSAfferenza",
								"valueCodeableConcept": {
									"coding": [
										{
											"system": "https://fhir.siss.regione.lombardia.it/ValueSet/DDC-ATSAfferenza",
											"code": "030321",
											"display": "ATS DELLA CITTA' METROPOLITANA DI MILANO"
										}
									]
								}
							}
						]
					},
					{
						"url": "https://fhir.siss.regione.lombardia.it/StructureDefinition/RLOrganizationDistrettoAccreditamento",
						"extension": [
							{
								"url": "codiceDistretto",
								"valueCodeableConcept": {
									"coding": [
										{
											"system": "https://fhir.siss.regione.lombardia.it/ValueSet/DDC-DistrettoSanitario",
											"code": "22105",
											"display": "MUNICIPIO 5"
										}
									]
								}
							},
							{
								"url": "ASSTAfferenza",
								"valueCodeableConcept": {
									"coding": [
										{
											"system": "https://fhir.siss.regione.lombardia.it/ValueSet/DDC-ASSTAfferenza",
											"code": "030702",
											"display": "ASST SANTI PAOLO E CARLO"
										}
									]
								}
							},
							{
								"url": "ATSAfferenza",
								"valueCodeableConcept": {
									"coding": [
										{
											"system": "https://fhir.siss.regione.lombardia.it/ValueSet/DDC-ATSAfferenza",
											"code": "030321",
											"display": "ATS DELLA CITTA' METROPOLITANA DI MILANO"
										}
									]
								}
							}
						]
					},
					{
						"url": "https://fhir.siss.regione.lombardia.it/StructureDefinition/RLOrganizationDistrettoAccreditamento",
						"extension": [
							{
								"url": "codiceDistretto",
								"valueCodeableConcept": {
									"coding": [
										{
											"system": "https://fhir.siss.regione.lombardia.it/ValueSet/DDC-DistrettoSanitario",
											"code": "22007",
											"display": "RHODENSE"
										}
									]
								}
							},
							{
								"url": "ASSTAfferenza",
								"valueCodeableConcept": {
									"coding": [
										{
											"system": "https://fhir.siss.regione.lombardia.it/ValueSet/DDC-ASSTAfferenza",
											"code": "030706",
											"display": "ASST RHODENSE"
										}
									]
								}
							},
							{
								"url": "ATSAfferenza",
								"valueCodeableConcept": {
									"coding": [
										{
											"system": "https://fhir.siss.regione.lombardia.it/ValueSet/DDC-ATSAfferenza",
											"code": "030321",
											"display": "ATS DELLA CITTA' METROPOLITANA DI MILANO"
										}
									]
								}
							}
						]
					}
				]
			}
		},
		{
			"fullUrl": "http://localhost:8480/api/enlist/fhir/Practitioner/4a8f0841-fd6d-46bb-9e10-2b3904996f53",
			"resource": {
				"resourceType": "Practitioner",
				"id": "4a8f0841-fd6d-46bb-9e10-2b3904996f53",
				"meta": {
					"versionId": "1",
					"lastUpdated": "2023-03-01T00:00:00.000+01:00",
					"profile": [
						"https://fhir.siss.regione.lombardia.it/StructureDefinition/RLPractitionerProfessionistaSanitario"
					]
				},
				"identifier": [
					{
						"system": "http://hl7.it/sid/codiceFiscale",
						"value": "NFRDME80A01F205X"
					}
				],
				"name": [
					{
						"family": "Infermiere",
						"given": [
							"Demo"
						]
					}
				]
			}
		},
		{
			"fullUrl": "http://localhost:8480/api/enlist/fhir/Condition/53d24d4d-9b8c-4ddd-b7f4-8832898507ab",
			"resource": {
				"resourceType": "Condition",
				"id": "53d24d4d-9b8c-4ddd-b7f4-8832898507ab",
				"meta": {
					"versionId": "1",
					"lastUpdated": "2023-06-19T10:56:27.324+02:00",
					"profile": [
						"https://fhir.siss.regione.lombardia.it/StructureDefinition/RLConditionProblemiSalute"
					]
				},
				"category": [
					{
						"coding": [
							{
								"system": "https://fhir.siss.regione.lombardia.it/ValueSet/SGDT-TipologiaProblemaSalute",
								"code": "1",
								"display": "Patologia Primaria"
							}
						]
					}
				],
				"code": {
					"coding": [
						{
							"system": "http://terminology.hl7.org/ValueSet/v3-DiagnosisICD9CM",
							"code": "42821",
							"display": " INSUFFICIENZA CARDIACA SISTOLICA ACUTA"
						}
					]
				},
				"subject": {
					"reference": "Patient/84373e3d-26c4-40dd-a844-f52f18ba279f",
					"display": "Mario Rossi"
				},
				"recordedDate": "2010-01-01T00:00:00+01:00"
			}
		},
		{
			"fullUrl": "http://localhost:8480/api/enlist/fhir/Condition/1760b4e1-b080-4530-b12a-02bf2c003bfb",
			"resource": {
				"resourceType": "Condition",
				"id": "1760b4e1-b080-4530-b12a-02bf2c003bfb",
				"meta": {
					"versionId": "1",
					"lastUpdated": "2010-01-01T00:00:00.000+01:00",
					"profile": [
						"https://fhir.siss.regione.lombardia.it/StructureDefinition/RLConditionProblemiSalute"
					]
				},
				"category": [
					{
						"coding": [
							{
								"system": "https://fhir.siss.regione.lombardia.it/ValueSet/SGDT-TipologiaProblemaSalute",
								"code": "2",
								"display": "Patologia Secondaria"
							}
						]
					}
				],
				"code": {
					"coding": [
						{
							"system": "http://terminology.hl7.org/ValueSet/v3-DiagnosisICD9CM",
							"code": "4258",
							"display": "CARDIOMIOPATIA IN ALTRE MALATTIE CLASSIFICATE ALTROVE"
						}
					]
				},
				"subject": {
					"reference": "Patient/84373e3d-26c4-40dd-a844-f52f18ba279f",
					"display": "Mario Rossi"
				},
				"recordedDate": "2010-01-01T00:00:00+01:00"
			}
		},
		{
			"fullUrl": "http://localhost:8480/api/enlist/fhir/Condition/c2ca8f32-286c-4233-91cf-5b382c3655b4",
			"resource": {
				"resourceType": "Condition",
				"id": "c2ca8f32-286c-4233-91cf-5b382c3655b4",
				"meta": {
					"versionId": "1",
					"lastUpdated": "2010-01-01T00:00:00.000+01:00",
					"profile": [
						"https://fhir.siss.regione.lombardia.it/StructureDefinition/RLConditionProblemiSalute"
					]
				},
				"category": [
					{
						"coding": [
							{
								"system": "https://fhir.siss.regione.lombardia.it/ValueSet/SGDT-TipologiaProblemaSalute",
								"code": "2",
								"display": "Patologia Secondaria"
							}
						]
					}
				],
				"code": {
					"coding": [
						{
							"system": "http://terminology.hl7.org/ValueSet/v3-DiagnosisICD9CM",
							"code": "40291",
							"display": "CARDIOPATIA IPERTENSIVA NON SPECIFICATA CON INSUFFICIENZA CARDIACA"
						}
					]
				},
				"subject": {
					"reference": "Patient/84373e3d-26c4-40dd-a844-f52f18ba279f",
					"display": "Mario Rossi"
				},
				"recordedDate": "2010-01-01T00:00:00+01:00"
			}
		},
		{
			"fullUrl": "http://localhost:8480/api/enlist/fhir/Condition/9ea44e83-a2af-43c8-8562-0b73f3679530",
			"resource": {
				"resourceType": "Condition",
				"id": "9ea44e83-a2af-43c8-8562-0b73f3679530",
				"meta": {
					"versionId": "1",
					"lastUpdated": "2023-06-19T10:56:27.409+02:00",
					"profile": [
						"https://fhir.siss.regione.lombardia.it/StructureDefinition/RLConditionProblemiSalute"
					]
				},
				"category": [
					{
						"coding": [
							{
								"system": "https://fhir.siss.regione.lombardia.it/ValueSet/SGDT-TipologiaProblemaSalute",
								"code": "3",
								"display": "Patologia Ulteriore"
							}
						]
					}
				],
				"code": {
					"coding": [
						{
							"system": "http://terminology.hl7.org/ValueSet/v3-DiagnosisICD9CM",
							"code": "40412",
							"display": "CARDIONEFROPATIA IPERTENSIVA BENIGNA SENZA INSUFFICIENZA CARDIACA E CON PATOLOGIA RENALE CRONICA DI STADIO V O DI STADIO TERMINALE"
						}
					]
				},
				"subject": {
					"reference": "Patient/84373e3d-26c4-40dd-a844-f52f18ba279f",
					"display": "Mario Rossi"
				},
				"recordedDate": "2010-01-01T00:00:00+01:00"
			}
		},
		{
			"fullUrl": "http://localhost:8480/api/enlist/fhir/Condition/e84f46e5-9e71-49e5-89aa-96efbb59e4aa",
			"resource": {
				"resourceType": "Condition",
				"id": "e84f46e5-9e71-49e5-89aa-96efbb59e4aa",
				"meta": {
					"versionId": "1",
					"lastUpdated": "2023-06-19T10:56:37.692+02:00",
					"profile": [
						"https://fhir.siss.regione.lombardia.it/StructureDefinition/RLConditionProblemiSalute"
					]
				},
				"category": [
					{
						"coding": [
							{
								"system": "https://fhir.siss.regione.lombardia.it/ValueSet/SGDT-TipologiaProblemaSalute",
								"code": "5",
								"display": "Problema infermieristico"
							}
						]
					}
				],
				"code": {
					"coding": [
						{
							"system": "https://fhir.siss.regione.lombardia.it/ValueSet/SGDT-ProblemaInfermieristico",
							"code": "1_3_AC_ACDP_266",
							"display": "sono presenti provvedimenti giudiziari di restrizione della libertà personale a domicilio"
						}
					]
				},
				"subject": {
					"reference": "Patient/84373e3d-26c4-40dd-a844-f52f18ba279f",
					"display": "Mario Rossi"
				},
				"recordedDate": "2023-06-19T10:56:37+02:00"
			}
		},
		{
			"fullUrl": "http://localhost:8480/api/enlist/fhir/Goal/c73537aa-ea82-4922-a8b0-89d7d7c32399",
			"resource": {
				"resourceType": "Goal",
				"id": "c73537aa-ea82-4922-a8b0-89d7d7c32399",
				"meta": {
					"versionId": "1",
					"lastUpdated": "2000-01-01T00:00:00.000+01:00",
					"profile": [
						"https://fhir.siss.regione.lombardia.it/StructureDefinition/RLGoalObiettiviSalute"
					]
				},
				"lifecycleStatus": "planned",
				"description": {
					"coding": [
						{
							"system": "https://fhir.siss.regione.lombardia.it/ValueSet/SGDT-ObiettiviSalute",
							"code": "04",
							"display": "Controllo dell'evoluzione della malattia"
						}
					]
				},
				"category": {
				  "coding": [
					{
					  "system": "https://fhir.siss.regione.lombardia.it/ValueSet/SGDT-AmbitoObiettiviSalute",
					  "code": "GOAL01",
					  "display": "Ambito clinico"
					}
				  ]
				},
				"subject": {
					"reference": "Patient/84373e3d-26c4-40dd-a844-f52f18ba279f",
					"display": "Mario Rossi"
				}
			}
		},
		{
			"fullUrl": "http://localhost:8480/api/enlist/fhir/Goal/e5367610-abf5-4acc-9cab-e788479a68eb",
			"resource": {
				"resourceType": "Goal",
				"id": "e5367610-abf5-4acc-9cab-e788479a68eb",
				"meta": {
					"versionId": "1",
					"lastUpdated": "2000-01-01T00:00:00.000+01:00",
					"profile": [
						"https://fhir.siss.regione.lombardia.it/StructureDefinition/RLGoalObiettiviSalute"
					]
				},
				"lifecycleStatus": "planned",
				"description": {
					"coding": [
						{
							"system": "https://fhir.siss.regione.lombardia.it/ValueSet/SGDT-ObiettiviSalute",
							"code": "03",
							"display": "Mantenimento del corretto stile di vita"
						}
					]
				},
				"category": {
				  "coding": [
					{
					  "system": "https://fhir.siss.regione.lombardia.it/ValueSet/SGDT-AmbitoObiettiviSalute",
					  "code": "GOAL01",
					  "display": "Ambito clinico"
					}
				  ]
				},
				"subject": {
					"reference": "Patient/84373e3d-26c4-40dd-a844-f52f18ba279f",
					"display": "Mario Rossi"
				}
			}
		},
		{
			"fullUrl": "http://localhost:8480/api/enlist/fhir/Observation/1683107592742-64787-2-1",
			"resource": {
				"resourceType": "Observation",
				"id": "1683107592742-64787-2-1",
				"meta": {
					"versionId": "1",
					"lastUpdated": "2023-05-03T11:53:12.743+02:00",
					"profile": [
						"https://fhir.siss.regione.lombardia.it/StructureDefinition/RLObservationEsitoValutazione"
					]
				},
				"status": "registered",
				"code": {
					"coding": [
						{
							"system": "https://fhir.siss.regione.lombardia.it/ValueSet/SGDT-Valutazione",
							"code": "VAL1",
							"display": "Scheda Triage"
						}
					]
				},
				"subject": {
					"reference": "Patient/84373e3d-26c4-40dd-a844-f52f18ba279f",
					"display": "Mario Rossi"
				},
				"performer": [
					{
						"reference": "PractitionerRole/4a8f0841-fd6d-46bb-9e10-2b3904996f53-1",
						"display": "Infermiere"
					}
				],
				"valueInteger": 8,
				"derivedFrom": [
					{
						"reference": "QuestionnaireResponse/1683107592742-64787-2",
						"display": "Valutazione"
					}
				]
			}
		},
		{
			"fullUrl": "http://localhost:8480/api/enlist/fhir/Observation/1683107657974-51919-3-1",
			"resource": {
				"resourceType": "Observation",
				"id": "1683107657974-51919-3-1",
				"meta": {
					"versionId": "1",
					"lastUpdated": "2023-05-03T11:54:17.974+02:00",
					"profile": [
						"https://fhir.siss.regione.lombardia.it/StructureDefinition/RLObservationEsitoValutazione"
					]
				},
				"status": "registered",
				"code": {
					"coding": [
						{
							"system": "https://fhir.siss.regione.lombardia.it/ValueSet/SGDT-Valutazione",
							"code": "VAL2",
							"display": "Scheda semplificata SIAD"
						}
					]
				},
				"subject": {
					"reference": "Patient/84373e3d-26c4-40dd-a844-f52f18ba279f",
					"display": "Mario Rossi"
				},
				"performer": [
					{
						"reference": "PractitionerRole/4a8f0841-fd6d-46bb-9e10-2b3904996f53-1",
						"display": "Infermiere"
					}
				],
				"derivedFrom": [
					{
						"reference": "QuestionnaireResponse/1683107657974-51919-3",
						"display": "Valutazione"
					}
				]
			}
		},
		{
			"fullUrl": "http://localhost:8480/api/enlist/fhir/Observation/190436-170550-1681465565556-1",
			"resource": {
				"resourceType": "Observation",
				"id": "190436-170550-1681465565556-1",
				"meta": {
					"versionId": "1",
					"lastUpdated": "2023-03-13T16:13:11.686+01:00",
					"profile": [
						"https://fhir.siss.regione.lombardia.it/StructureDefinition/RLObservationEsitoValutazione"
					]
				},
				"status": "registered",
				"code": {
					"coding": [
						{
							"system": "https://fhir.siss.regione.lombardia.it/ValueSet/SGDT-Valutazione",
							"code": "VAL3",
							"display": "InterRAI HomeCare"
						}
					]
				},
				"subject": {
					"reference": "Patient/84373e3d-26c4-40dd-a844-f52f18ba279f",
					"display": "Mario Rossi"
				},
				"performer": [
					{
						"reference": "PractitionerRole/4a8f0841-fd6d-46bb-9e10-2b3904996f53-1",
						"display": "Infermiere"
					}
				],
				"derivedFrom": [
					{
						"reference": "QuestionnaireResponse/190436-170550-1681465565556",
						"display": "Valutazione"
					}
				],
				"component": [
					{
						"code": {
							"coding": [
								{
									"code": "PHP.01",
									"display": "Cognitive Performance Scale (CPS)"
								}
							]
						},
						"valueInteger": 2
					},
					{
						"code": {
							"coding": [
								{
									"code": "PHP.02",
									"display": "Depression Rating Scale (DRS)"
								}
							]
						},
						"valueInteger": 8
					},
					{
						"code": {
							"coding": [
								{
									"code": "PHP.03",
									"display": "- possibilità di umore depresso"
								}
							]
						},
						"valueInteger": 8
					},
					{
						"code": {
							"coding": [
								{
									"code": "PHP.04",
									"display": "Cambiamenti acuti nello stato mentale"
								}
							]
						},
						"valueInteger": 1
					},
					{
						"code": {
							"coding": [
								{
									"code": "PHP.05",
									"display": "Ha presentato allucinazioni"
								}
							]
						},
						"valueInteger": 4
					},
					{
						"code": {
							"coding": [
								{
									"code": "PHP.06",
									"display": "Capacità di farsi comprendere"
								}
							]
						},
						"valueInteger": 2
					},
					{
						"code": {
							"coding": [
								{
									"code": "PHP.07",
									"display": "Vagabondaggio"
								}
							]
						},
						"valueInteger": 3
					},
					{
						"code": {
							"coding": [
								{
									"code": "PHP.08",
									"display": "Aggressività verbale"
								}
							]
						},
						"valueInteger": 2
					},
					{
						"code": {
							"coding": [
								{
									"code": "PHP.09",
									"display": "Aggressività fisica"
								}
							]
						},
						"valueInteger": 2
					},
					{
						"code": {
							"coding": [
								{
									"code": "PHP.10",
									"display": "Comportamento sociale inadeguato"
								}
							]
						},
						"valueInteger": 2
					},
					{
						"code": {
							"coding": [
								{
									"code": "PHP.11",
									"display": "Rifiuto dell'assistenza"
								}
							]
						},
						"valueInteger": 1
					},
					{
						"code": {
							"coding": [
								{
									"code": "PHP.12",
									"display": "Coinvolgimento"
								}
							]
						},
						"valueInteger": 3
					},
					{
						"code": {
							"coding": [
								{
									"code": "PHP.13",
									"display": "Igiene personale"
								}
							]
						},
						"valueInteger": 8
					},
					{
						"code": {
							"coding": [
								{
									"code": "PHP.14",
									"display": "Locomozione"
								}
							]
						},
						"valueInteger": 8
					},
					{
						"code": {
							"coding": [
								{
									"code": "PHP.15",
									"display": "Mangiare"
								}
							]
						},
						"valueInteger": 8
					},
					{
						"code": {
							"coding": [
								{
									"code": "PHP.16",
									"display": "ADL Self-performance Hierarchy"
								}
							]
						},
						"valueInteger": 6
					},
					{
						"code": {
							"coding": [
								{
									"code": "PHP.17",
									"display": "Potenziale di miglioramento nella funzione fisica"
								}
							]
						},
						"valueInteger": 1
					},
					{
						"code": {
							"coding": [
								{
									"code": "PHP.18",
									"display": "Cadute"
								}
							]
						},
						"valueInteger": 1
					},
					{
						"code": {
							"coding": [
								{
									"code": "PHP.19",
									"display": "CHESS"
								}
							]
						},
						"valueInteger": 5
					},
					{
						"code": {
							"coding": [
								{
									"code": "PHP.20",
									"display": "Scala del dolore"
								}
							]
						},
						"valueInteger": -1
					},
					{
						"code": {
							"coding": [
								{
									"code": "PHP.21",
									"display": "Ulcere da pressione"
								}
							]
						},
						"valueInteger": 2
					},
					{
						"code": {
							"coding": [
								{
									"code": "PHP.22",
									"display": "Perdita di peso"
								}
							]
						},
						"valueInteger": 1
					},
					{
						"code": {
							"coding": [
								{
									"code": "PHP.23",
									"display": "Deglutizione"
								}
							]
						},
						"valueInteger": 5
					},
					{
						"code": {
							"coding": [
								{
									"code": "PHP.24",
									"display": "Ossigeno"
								}
							]
						},
						"valueInteger": 2
					},
					{
						"code": {
							"coding": [
								{
									"code": "PHP.25",
									"display": "Ventilazione assistita"
								}
							]
						},
						"valueInteger": 2
					},
					{
						"code": {
							"coding": [
								{
									"code": "PHP.26",
									"display": "Dialisi"
								}
							]
						},
						"valueInteger": 2
					},
					{
						"code": {
							"coding": [
								{
									"code": "PHP.27",
									"display": "Tervia ev"
								}
							]
						},
						"valueInteger": 2
					},
					{
						"code": {
							"coding": [
								{
									"code": "PHP.28",
									"display": "Tracheostomia"
								}
							]
						},
						"valueInteger": 3
					},
					{
						"code": {
							"coding": [
								{
									"code": "PHP.29",
									"display": "Classe RUG di appartenenza"
								}
							]
						},
						"valueInteger": 1
					},
					{
						"code": {
							"coding": [
								{
									"code": "PHP.30",
									"display": "Livello di priorità"
								}
							]
						},
						"valueInteger": 5
					},
					{
						"code": {
							"coding": [
								{
									"code": "PVC.01",
									"display": "Prevenzione"
								}
							]
						},
						"valueInteger": 1
					},
					{
						"code": {
							"coding": [
								{
									"code": "PVC.02",
									"display": "Condizioni cardio-respiratorie"
								}
							]
						},
						"valueInteger": 1
					},
					{
						"code": {
							"coding": [
								{
									"code": "PVC.03",
									"display": "Consumo tabacco/alcool"
								}
							]
						},
						"valueInteger": 1
					},
					{
						"code": {
							"coding": [
								{
									"code": "PVC.04",
									"display": "Farmaci"
								}
							]
						},
						"valueInteger": 0
					},
					{
						"code": {
							"coding": [
								{
									"code": "PVC.05",
									"display": "Rischio di istituzionalizzazione"
								}
							]
						},
						"valueInteger": 1
					},
					{
						"code": {
							"coding": [
								{
									"code": "PVC.06",
									"display": "Promozione di attività fisica"
								}
							]
						},
						"valueInteger": 0
					},
					{
						"code": {
							"coding": [
								{
									"code": "PVC.07",
									"display": "Disidratazione"
								}
							]
						},
						"valueInteger": 0
					},
					{
						"code": {
							"coding": [
								{
									"code": "PVC.08",
									"display": "Relazioni sociali"
								}
							]
						},
						"valueInteger": 1
					},
					{
						"code": {
							"coding": [
								{
									"code": "PVC.09",
									"display": "Incontinenza urinaria"
								}
							]
						},
						"valueInteger": 2
					},
					{
						"code": {
							"coding": [
								{
									"code": "PVC.10",
									"display": "ADL"
								}
							]
						},
						"valueInteger": 0
					},
					{
						"code": {
							"coding": [
								{
									"code": "PVC.11",
									"display": "IADL"
								}
							]
						},
						"valueInteger": 0
					},
					{
						"code": {
							"coding": [
								{
									"code": "PVC.12",
									"display": "Abuso dell'anziano"
								}
							]
						},
						"valueInteger": 2
					},
					{
						"code": {
							"coding": [
								{
									"code": "PVC.13",
									"display": "Supporto informale"
								}
							]
						},
						"valueInteger": 1
					},
					{
						"code": {
							"coding": [
								{
									"code": "PVC.14",
									"display": "Sicurezza dell'ambiente domestico"
								}
							]
						},
						"valueInteger": 0
					},
					{
						"code": {
							"coding": [
								{
									"code": "PVC.15",
									"display": "Stato cognitivo"
								}
							]
						},
						"valueInteger": 2
					},
					{
						"code": {
							"coding": [
								{
									"code": "PVC.16",
									"display": "Piaghe da decubito"
								}
							]
						},
						"valueInteger": 1
					},
					{
						"code": {
							"coding": [
								{
									"code": "PVC.17",
									"display": "Dolore"
								}
							]
						},
						"valueInteger": 2
					},
					{
						"code": {
							"coding": [
								{
									"code": "PVC.18",
									"display": "Comportamento"
								}
							]
						},
						"valueInteger": 2
					},
					{
						"code": {
							"coding": [
								{
									"code": "PVC.19",
									"display": "Comunicazione"
								}
							]
						},
						"valueInteger": 0
					},
					{
						"code": {
							"coding": [
								{
									"code": "PVC.20",
									"display": "Cadute"
								}
							]
						},
						"valueInteger": 1
					},
					{
						"code": {
							"coding": [
								{
									"code": "PVC.21",
									"display": "Umore"
								}
							]
						},
						"valueInteger": 2
					},
					{
						"code": {
							"coding": [
								{
									"code": "PVC.22",
									"display": "Disturbi intestinali"
								}
							]
						},
						"valueInteger": 1
					},
					{
						"code": {
							"coding": [
								{
									"code": "PVC.23",
									"display": "Nutrizione entrenale"
								}
							]
						},
						"valueInteger": 0
					},
					{
						"code": {
							"coding": [
								{
									"code": "PVC.24",
									"display": "Stato confusionale acuto"
								}
							]
						},
						"valueInteger": 1
					},
					{
						"code": {
							"coding": [
								{
									"code": "PVC.25",
									"display": "Nutrizione"
								}
							]
						},
						"valueInteger": 2
					}
				]
			}
		},
		{
			"fullUrl": "http://localhost:8480/api/enlist/fhir/QuestionnaireResponse/1683107592742-64787-2",
			"resource": {
				"resourceType": "QuestionnaireResponse",
				"id": "1683107592742-64787-2",
				"meta": {
					"versionId": "1",
					"lastUpdated": "2023-05-03T11:53:12.743+02:00",
					"profile": [
						"https://fhir.siss.regione.lombardia.it/StructureDefinition/RLQuestionnaireResponseValutazione"
					]
				},
				"extension": [
					{
						"url": "https://fhir.siss.regione.lombardia.it/StructureDefinition/RLQuestionnaireResponseEsitoValutazione",
						"valueReference": {
							"reference": "Observation/1683107592742-64787-2-1"
						}
					},
					{
						"url": "https://fhir.siss.regione.lombardia.it/StructureDefinition/RLQuestionnaireResponseTipologiaValutazione",
						"valueCodeableConcept": {
							"coding": [
								{
									"system": "https://fhir.siss.regione.lombardia.it/CodeSystem/SGDT-TipologiaValutazione",
									"code": "I",
									"display": "Prima Valutazione"
								}
							]
						}
					}
				],
				"basedOn": [
					{
						"reference": "CarePlan/ea1c5d21-cf5b-49c8-bd6c-8f2f416cc42e",
						"display": "PROGETTO INDIVIDUALE: PI-202300000102"
					}
				],
				"questionnaire": "Questionnaire/TRIAGE",
				"status": "completed",
				"authored": "2023-05-03T11:53:12+02:00",
				"author": {
					"reference": "Practitioner/4a8f0841-fd6d-46bb-9e10-2b3904996f53",
					"display": "Demo Infermiere"
				},
				"source": {
					"reference": "Patient/84373e3d-26c4-40dd-a844-f52f18ba279f",
					"display": "Mario Rossi"
				},
				"item": [
					{
						"linkId": "1",
						"text": "MORBILITA'",
						"answer": [
							{
								"valueString": "GRAVE-la compromissione d'organo/sistema produce disabilità",
								"item":[{
									"linkId": "1"
								}]
							}
						]
					},
					{
						"linkId": "3",
						"text": "ALVO E DIUERESI",
						"answer": [
							{
								"valueString": "INCONTINENZA STABILE-per alvo e diuresi(uso pannoloni)",
								"item":[{
									"linkId": "4"
								}]
							}
						]
					},
					{
						"linkId": "8",
						"text": "ASSISTENZA DIRETTA (caregiver)",
						"answer": [
							{
								"valueString": "INADEGUATA-(non è offerta alcun tipo di assistenza)",
								"item":[{
									"linkId": "20"
								}]
							}
						]
					},
					{
						"linkId": "6",
						"text": "STATO MENTALE E COMPORTAMENTO",
						"answer": [
							{
								"valueString": "NON COLLABORANTE,E CON DIFFICOLTA' A CAPIRE LE INDICAZIONI",
								"item":[{
									"linkId": "08"
								}]
							}
						]
					},
					{
						"linkId": "7",
						"text": "CON CHI VIVE",
						"answer": [
							{
								"valueString": "COPPIA,NUCLEO FAMILIARE,ASSISTENTE FAMILIARE",
								"item":[{
									"linkId": "12"
								}]
							}
						]
					},
					{
						"linkId": "5",
						"text": "IGIENE PERSONALE",
						"answer": [
							{
								"valueString": "TOTALE DIPENDENZA",
								"item":[{
									"linkId": "76"
								}]
							}
						]
					},
					{
						"linkId": "4",
						"text": "MOBILITA'",
						"answer": [
							{
								"valueString": "CON AUSILI-usa bastone,walker,carrozzina,...",
								"item":[{
									"linkId": "9"
								}]
							}
						]
					},
					{
						"linkId": "2",
						"text": "ALIMENTAZIONE",
						"answer": [
							{
								"valueString": "CON AIUTO-supervisione",
								"item":[{
									"linkId": "33"
								}]
							}
						]
					}
				]
			}
		},
		{
			"fullUrl": "http://localhost:8480/api/enlist/fhir/QuestionnaireResponse/1683107657974-51919-3",
			"resource": {
				"resourceType": "QuestionnaireResponse",
				"id": "1683107657974-51919-3",
				"meta": {
					"versionId": "1",
					"lastUpdated": "2023-05-03T11:54:17.974+02:00",
					"profile": [
						"https://fhir.siss.regione.lombardia.it/StructureDefinition/RLQuestionnaireResponseValutazione"
					]
				},
				"extension": [
					{
						"url": "https://fhir.siss.regione.lombardia.it/StructureDefinition/RLQuestionnaireResponseEsitoValutazione",
						"valueReference": {
							"reference": "Observation/1683107657974-51919-3-1"
						}
					},
					{
						"url": "https://fhir.siss.regione.lombardia.it/StructureDefinition/RLQuestionnaireResponseTipologiaValutazione",
						"valueCodeableConcept": {
							"coding": [
								{
									"system": "https://fhir.siss.regione.lombardia.it/CodeSystem/SGDT-TipologiaValutazione",
									"code": "I",
									"display": "Prima Valutazione"
								}
							]
						}
					}
				],
				"basedOn": [
					{
						"reference": "CarePlan/ea1c5d21-cf5b-49c8-bd6c-8f2f416cc42e",
						"display": "PROGETTO INDIVIDUALE: PI-202300000102"
					}
				],
				"questionnaire": "Questionnaire/SIAD",
				"status": "completed",
				"authored": "2023-05-03T11:54:17+02:00",
				"author": {
					"reference": "Practitioner/4a8f0841-fd6d-46bb-9e10-2b3904996f53",
					"display": "Demo Infermiere"
				},
				"source": {
					"reference": "Patient/84373e3d-26c4-40dd-a844-f52f18ba279f",
					"display": "Mario Rossi"
				},
				"item": [
					{
						"linkId": "29",
						"text": "Assistenza nelle IADL",
						"answer": [
							{
								"valueBoolean": false
							}
						]
					},
					{
						"linkId": "25",
						"text": "Trattamento riabilitativo neurologico in presenza di disabilità",
						"answer": [
							{
								"valueBoolean": true
							}
						]
					},
					{
						"linkId": "31",
						"text": "Supporto al caregiver",
						"answer": [
							{
								"valueBoolean": false,
								"item":[{
									"linkId": "51"
								}]
							}
						]
					},
					{
						"linkId": "10",
						"text": "Eliminazione urinaria/intestinale",
						"answer": [
							{
								"valueBoolean": false,
								"item":[{
									"linkId": "13"
								}]
							}
						]
					},
					{
						"linkId": "20",
						"text": "Gestione catetere centrale",
						"answer": [
							{
								"valueBoolean": true,
								"item":[{
									"linkId": "1"
								}]
							}
						]
					},
					{
						"linkId": "30",
						"text": "Assistenza nelle ADL",
						"answer": [
							{
								"valueBoolean": false,
								"item":[{
									"linkId": "12"
								}]
							}
						]
					},
					{
						"linkId": "13",
						"text": "Ulcere da decubito di 1 e 2 grado",
						"answer": [
							{
								"valueBoolean": true,
								"item":[{
									"linkId": "665"
								}]
							}
						]
					},
					{
						"linkId": "1",
						"text": "Presenza di Rischio Infettivo",
						"answer": [
							{
							
								"valueBoolean": true,
								"item":[{
									"linkId": "1"
								}]
							}
						]
					},
					{
						"linkId": "9",
						"text": "Gestione della stomia",
						"answer": [
							{
								"valueBoolean": true,
								"item":[{
									"linkId": "1"
								}]
							}
						]
					},
					{
						"linkId": "19",
						"text": "Procedura terapeutica (accesso venoso sottocute/intramuscolo)",
						"answer": [
							{
								"valueBoolean": true,
								"item":[{
									"linkId": "1"
								}]
							}
						]
					},
					{
						"linkId": "18",
						"text": "Prelievi venosi occasionali",
						"answer": [
							{
								"valueBoolean": false,
								"item":[{
									"linkId": "1"
								}]
							}
						]
					},
					{
						"linkId": "3",
						"text": "Ossigeno terapia",
						"answer": [
							{
								"valueBoolean": true,
								"item":[{
									"linkId": "1"
								}]
							}
						]
					},
					{
						"linkId": "26",
						"text": "Trattamento riabilitativo motorio in presenza di disabilità",
						"answer": [
							{
								"valueBoolean": true,
								"item":[{
									"linkId": "1"
								}]
							}
						]
					},
					{
						"linkId": "6",
						"text": "Alimentazione assistita",
						"answer": [
							{
								"valueBoolean": false,
								"item":[{
									"linkId": "1"
								}]
							}
						]
					},
					{
						"linkId": "17",
						"text": "Prelievi venosi non occasionali",
						"answer": [
							{
								"valueBoolean": false,
								"item":[{
									"linkId": "1"
								}]
							}
						]
					},
					{
						"linkId": "8",
						"text": "Alimentazione parenterale",
						"answer": [
							{
								"valueBoolean": true,
								"item":[{
									"linkId": "1"
								}]
							}
						]
					},
					{
						"linkId": "14",
						"text": "Ulcere da decubito di 3 e 4 grado",
						"answer": [
							{
								"valueBoolean": true,
								"item":[{
									"linkId": "1"
								}]
							}
						]
					},
					{
						"linkId": "24",
						"text": "Lesioni della cute",
						"answer": [
							{
								"valueBoolean": false,
								"item":[{
									"linkId":"1"
								}]
							}
						]
					},
					{
						"linkId": "21",
						"text": "Controllo del dolore",
						"answer": [
							{
								"valueBoolean": true,
								"item":[{
									"linkId":"1"
								}]
							}
						]
					},
					{
						"linkId": "28",
						"text": "Supervisione continua di utenti con disabilità",
						"answer": [
							{
								"valueBoolean": false,
								"item":[{
									"linkId":"1"
								}]
							}
						]
					},
					{
						"linkId": "12",
						"text": "Educazione terapeutica (addestramento/nursing)",
						"answer": [
							{
								"valueBoolean": false,
								"item":[{
									"linkId":"1"
								}]
							}
						]
					},
					{
						"linkId": "7",
						"text": "Alimentazione enterale",
						"answer": [
							{
								"valueBoolean": true,
								"item":[{
									"linkId":"1"
								}]
							}
						]
					},
					{
						"linkId": "23",
						"text": "Rischio sanguinamento acuto",
						"answer": [
							{
								"valueBoolean": false,
								"item":[{
									"linkId":"1"
								}]
							}
						]
					},
					{
						"linkId": "4",
						"text": "Ventilo terapia",
						"answer": [
							{
								"valueBoolean": false,
								"item":[{
									"linkId":"1"
								}]
							}
						]
					},
					{
						"linkId": "15",
						"text": "Ulcere cutanee (vascolari, traumatiche, ustioni, post chirurgiche, etc.) di 1 e 2 grado",
						"answer": [
							{
								"valueBoolean": true,
								"item":[{
									"linkId":"1"
								}]
							}
						]
					},
					{
						"linkId": "22",
						"text": "Fragilità familiare",
						"answer": [
							{
								"valueBoolean": false,
								"item":[{
									"linkId":"1"
								}]
							}
						]
					},
					{
						"linkId": "16",
						"text": "Ulcere cutanee (vascolari, ustioni, traumatiche, post chirurgiche, etc.) di 3 e 4 grado",
						"answer": [
							{
								"valueBoolean": false, 
								"item":[{
									"linkId":"1"
								}]
							}
						]
					},
					{
						"linkId": "5",
						"text": "Tracheotomia",
						"answer": [
							{
								"valueBoolean": false,
								"item":[{
									"linkId":"1"
								}]
							}
						]
					},
					{
						"linkId": "11",
						"text": "Alterazione del ritmo sonno/veglia",
						"answer": [
							{
								"valueBoolean": false,
								"item":[{
									"linkId":"1"
								}]
							}
						]
					},
					{
						"linkId": "2",
						"text": "Broncoaspirazione/ Drenaggio posturale",
						"answer": [
							{
								"valueBoolean": true,
								"item":[{
									"linkId":"1"
								}]
							}
						]
					},
					{
						"linkId": "27",
						"text": "Trattamento riabilitativo di mantenimento in presenza di disabilità",
						"answer": [
							{
								"valueBoolean": true,
								"item":[{
									"linkId":"1"
								}]
							}
						]
					}
				]
			}
		},
		{
			"fullUrl": "http://localhost:8480/api/enlist/fhir/QuestionnaireResponse/190436-170550-1681465565556",
			"resource": {
				"resourceType": "QuestionnaireResponse",
				"id": "190436-170550-1681465565556",
				"meta": {
					"versionId": "1",
					"lastUpdated": "2023-03-13T16:13:11.686+01:00",
					"profile": [
						"https://fhir.siss.regione.lombardia.it/StructureDefinition/RLQuestionnaireResponseValutazione"
					]
				},
				"extension": [
					{
						"url": "https://fhir.siss.regione.lombardia.it/StructureDefinition/RLQuestionnaireResponseEsitoValutazione",
						"valueReference": {
							"reference": "Observation/190436-170550-1681465565556-1"
						}
					},
					{
						"url": "https://fhir.siss.regione.lombardia.it/StructureDefinition/RLQuestionnaireResponseTipologiaValutazione",
						"valueCodeableConcept": {
							"coding": [
								{
									"system": "https://fhir.siss.regione.lombardia.it/CodeSystem/SGDT-TipologiaValutazione",
									"code": "I",
									"display": "Prima Valutazione"
								}
							]
						}
					}
				],
				"basedOn": [
					{
						"reference": "CarePlan/ea1c5d21-cf5b-49c8-bd6c-8f2f416cc42e",
						"display": "PROGETTO INDIVIDUALE: PI-202300000102"
					}
				],
				"questionnaire": "Questionnaire/INTERRAI",
				"status": "completed",
				"authored": "2023-03-13T16:13:11+01:00",
				"author": {
					"reference": "Practitioner/4a8f0841-fd6d-46bb-9e10-2b3904996f53",
					"display": "Demo Infermiere"
				},
				"source": {
					"reference": "Patient/84373e3d-26c4-40dd-a844-f52f18ba279f",
					"display": "Mario Rossi"
				}
			}
		},
		{
			"fullUrl": "http://localhost:8480/api/enlist/fhir/Questionnaire/1683107592742-64787-2-2",
			"resource": {
				"resourceType": "Questionnaire",
				"id": "1683107592742-64787-2-2",
				"meta": {
					"versionId": "1",
					"lastUpdated": "2023-05-03T11:53:12.743+02:00",
					"profile": [
						"https://fhir.siss.regione.lombardia.it/StructureDefinition/RLQuestionnaireValutazione"
					]
				},
				"title": "TRIAGE",
				"status": "active"
			}
		},
		{
			"fullUrl": "http://localhost:8480/api/enlist/fhir/Questionnaire/1683107657974-51919-3-2",
			"resource": {
				"resourceType": "Questionnaire",
				"id": "1683107657974-51919-3-2",
				"meta": {
					"versionId": "1",
					"lastUpdated": "2023-05-03T11:54:17.974+02:00",
					"profile": [
						"https://fhir.siss.regione.lombardia.it/StructureDefinition/RLQuestionnaireValutazione"
					]
				},
				"title": "SIAD",
				"status": "active"
			}
		},
		{
			"fullUrl": "http://localhost:8480/api/enlist/fhir/Questionnaire/190436-170550-1681465565556-2",
			"resource": {
				"resourceType": "Questionnaire",
				"id": "190436-170550-1681465565556-2",
				"meta": {
					"versionId": "1",
					"lastUpdated": "2023-03-13T16:13:11.686+01:00",
					"profile": [
						"https://fhir.siss.regione.lombardia.it/StructureDefinition/RLQuestionnaireValutazione"
					]
				},
				"title": "INTERRAI",
				"status": "active"
			}
		},
		{
			"fullUrl": "http://localhost:8480/api/enlist/fhir/ServiceRequest/d99a530e-f43a-4c1f-ade8-89dd43ec5dd5-1",
			"resource": {
				"resourceType": "ServiceRequest",
				"id": "d99a530e-f43a-4c1f-ade8-89dd43ec5dd5-1",
				"meta": {
					"versionId": "1",
					"lastUpdated": "2023-06-01T11:57:32.450+02:00",
					"profile": [
						"https://fhir.siss.regione.lombardia.it/StructureDefinition/RLServiceRequestServiziSocioAssistenziali"
					]
				},
				"extension": [
					{
						"url": "https://fhir.siss.regione.lombardia.it/StructureDefinition/RLServiceRequestSoggettoProponentePIC",
						"valueCodeableConcept": {
							"coding": [
								{
									"system": "https://fhir.siss.regione.lombardia.it/ValueSet/SIAD-ProponentePIC",
									"code": "2",
									"display": "MMG/PLS"
								}
							]
						}
					}
				],
				"identifier": [
					{
						"system": "https://fhir.siss.regione.lombardia.it/sid/codiceIdentificativoServizioSocioAssistenziale",
						"value": "2023000083"
					}
				],
				"basedOn": [
					{
						"reference": "CarePlan/ea1c5d21-cf5b-49c8-bd6c-8f2f416cc42e",
						"display": "PROGETTO INDIVIDUALE: PI-202300000102"
					}
				],
				"status": "active",
				"intent": "order",
				"code": {
					"coding": [
						{
							"system": "https://fhir.siss.regione.lombardia.it/ValueSet/DDC-DescL2",
							"code": "C-DOM",
							"display": "Cure Domiciliari"
						}
					]
				},
				"quantityQuantity": {
					"value": 4
				},
				"subject": {
					"reference": "Patient/84373e3d-26c4-40dd-a844-f52f18ba279f",
					"display": "Mario Rossi"
				},
				"occurrencePeriod": {
					"start": "2023-05-31T18:00:00+02:00",
					"end": "2023-06-03T18:00:00+02:00"
				},
				"performer": [
					{
						"reference": "Organization/8c4259b0-f97f-11ed-a481-0050569fd9f1",
						"display": "NUOVA SAIR"
					},
					{
						"reference": "PractitionerRole/e00856f9-8186-4050-9171-850719e67e54",
						"display": "Professionista Sanitario ADI"
					}
				],
				"reasonCode": [
					{
						"coding": [
							{
								"system": "https://fhir.siss.regione.lombardia.it/ValueSet/SGDT-PercorsiCDom",
								"code": "PERCDOM01",
								"display": "Prelievo"
							}
						]
					}
				],
				"note": [
					{
						"text": "Ulteriori Informazioni"
					}
				]
			}
		},
		{
			"fullUrl": "http://localhost:8480/api/enlist/fhir/ServiceRequest/d99a530e-f43a-4c1f-ade8-89dd43ec5dd5-2",
			"resource": {
				"resourceType": "ServiceRequest",
				"id": "d99a530e-f43a-4c1f-ade8-89dd43ec5dd5-2",
				"meta": {
					"versionId": "1",
					"lastUpdated": "2023-06-01T11:57:32.450+02:00",
					"profile": [
						"https://fhir.siss.regione.lombardia.it/StructureDefinition/RLServiceRequestServiziSocioAssistenziali"
					]
				},
				"extension": [
					{
						"url": "https://fhir.siss.regione.lombardia.it/StructureDefinition/RLServiceRequestSoggettoProponentePIC",
						"valueCodeableConcept": {
							"coding": [
								{
									"system": "https://fhir.siss.regione.lombardia.it/ValueSet/SIAD-ProponentePIC",
									"code": "2",
									"display": "MMG/PLS"
								}
							]
						}
					},
					{
						"url": "https://fhir.siss.regione.lombardia.it/StructureDefinition/RLServiceRequestMedicoPrescrittore",
						"valueString": "A0ml88"
					}
				],
				"identifier": [
					{
						"system": "https://fhir.siss.regione.lombardia.it/sid/codiceIdentificativoServizioSocioAssistenziale",
						"value": "2023000083"
					}
				],
				"basedOn": [
					{
						"reference": "CarePlan/ea1c5d21-cf5b-49c8-bd6c-8f2f416cc42e",
						"display": "PROGETTO INDIVIDUALE: PI-202300000102"
					}
				],
				"status": "active",
				"intent": "order",
				"code": {
					"coding": [
						{
							"system": "https://fhir.siss.regione.lombardia.it/ValueSet/DDC-DescL2",
							"code": "C-DOM",
							"display": "Cure Domiciliari"
						}
					]
				},
				"quantityQuantity": {
					"value": 16
				},
				"subject": {
					"reference": "Patient/84373e3d-26c4-40dd-a844-f52f18ba279f",
					"display": "Mario Rossi"
				},
				"occurrencePeriod": {
					"start": "2023-06-04T18:00:00+02:00",
					"end": "2023-06-06T18:00:00+02:00"
				},
				"performer": [
					{
						"reference": "Organization/8c4259b0-f97f-11ed-a481-0050569fd9f1",
						"display": "NUOVA SAIR"
					},
					{
						"reference": "PractitionerRole/73a71883-aae1-497b-9a70-16cae8a0cc22",
						"display": "Professionista Sanitario ADI"
					}
				],
				"reasonCode": [
					{
						"coding": [
							{
								"system": "https://fhir.siss.regione.lombardia.it/ValueSet/SGDT-PercorsiCDom",
								"code": "PERCDOM08",
								"display": "Lesioni C"
							}
						]
					}
				],
				"note": [
					{
						"text": "Ulteriori Informazioni"
					}
				]
			}
		},
		{
			"fullUrl": "http://localhost:8480/api/enlist/fhir/ServiceRequest/AEE3F728-435F-C793-60C6-FDA2DA310285",
			"resource": {
				"resourceType": "ServiceRequest",
				"id": "AEE3F728-435F-C793-60C6-FDA2DA310285",
				"meta": {
					"versionId": "1",
					"lastUpdated": "2000-01-01T00:00:00.000+01:00",
					"profile": [
						"https://fhir.siss.regione.lombardia.it/StructureDefinition/RLServiceRequestPrestazioniSpecialistiche"
					]
				},
				"extension": [
					{
						"url": "https://fhir.siss.regione.lombardia.it/StructureDefinition/RLServiceRequestUlterioriDettagli",
						"extension": [
							{
								"url": "Prescrizione Elettronica",
								"valueString": "03"
							}
						]
					}
				],
				"basedOn": [
					{
						"reference": "CarePlan/ea1c5d21-cf5b-49c8-bd6c-8f2f416cc42e",
						"display": "PROGETTO INDIVIDUALE: PI-202300000102"
					}
				],
				"status": "active",
				"intent": "order",
				"code": {
					"coding": [
						{
							"system": "https://fhir.siss.regione.lombardia.it/ValueSet/DDC-PrestSpecSISS",
							"code": "08897.07",
							"display": "VISITA CARDIOCHIRURGICA (PRIMA VISITA)"
						}
					]
				},
				"subject": {
					"reference": "Patient/84373e3d-26c4-40dd-a844-f52f18ba279f",
					"display": "Mario Rossi"
				},
				"occurrencePeriod": {
					"start": "2023-04-27T11:34:00+02:00",
					"end": "2023-04-28T11:34:00+02:00"
				}
			}
		},
		{
			"fullUrl": "http://localhost:8480/api/enlist/fhir/ServiceRequest/0F2BBB76-1ED0-CFA6-E983-7004BD4C1F62",
			"resource": {
				"resourceType": "ServiceRequest",
				"id": "0F2BBB76-1ED0-CFA6-E983-7004BD4C1F62",
				"meta": {
					"versionId": "1",
					"lastUpdated": "2000-01-01T00:00:00.000+01:00",
					"profile": [
						"https://fhir.siss.regione.lombardia.it/StructureDefinition/RLServiceRequestPrestazioniSpecialistiche"
					]
				},
				"extension": [
					{
						"url": "https://fhir.siss.regione.lombardia.it/StructureDefinition/RLServiceRequestUlterioriDettagli",
						"extension": [
							{
								"url": "Prescrizione Elettronica",
								"valueString": "03"
							}
						]
					}
				],
				"basedOn": [
					{
						"reference": "CarePlan/ea1c5d21-cf5b-49c8-bd6c-8f2f416cc42e",
						"display": "PROGETTO INDIVIDUALE: PI-202300000102"
					}
				],
				"status": "active",
				"intent": "order",
				"code": {
					"coding": [
						{
							"system": "https://fhir.siss.regione.lombardia.it/ValueSet/DDC-PrestSpecSISS",
							"code": "018917.01",
							"display": "MONITORAGGIO CARDIORESPIRATORIO NOTTURNO COMPLETO (8 canali)"
						}
					]
				},
				"subject": {
					"reference": "Patient/84373e3d-26c4-40dd-a844-f52f18ba279f",
					"display": "Mario Rossi"
				},
				"occurrencePeriod": {
					"start": "2023-04-27T13:35:00+02:00",
					"end": "2023-04-27T13:35:00+02:00"
				}
			}
		},
		{
			"fullUrl": "http://localhost:8480/api/enlist/fhir/ServiceRequest/c5c2ab67-7de8-45f8-8483-d0e602ba595e",
			"resource": {
				"resourceType": "ServiceRequest",
				"id": "c5c2ab67-7de8-45f8-8483-d0e602ba595e",
				"meta": {
					"versionId": "1",
					"lastUpdated": "2023-06-01T00:00:01.000+02:00",
					"profile": [
						"https://fhir.siss.regione.lombardia.it/StructureDefinition/RLServiceRequestPrestazioniInfermieristiche"
					]
				},
				"basedOn": [
					{
						"reference": "CarePlan/ea1c5d21-cf5b-49c8-bd6c-8f2f416cc42e",
						"display": "PROGETTO INDIVIDUALE: PI-202300000102"
					}
				],
				"status": "active",
				"intent": "order",
				"code": {
					"coding": [
						{
							"system": "https://fhir.siss.regione.lombardia.it/ValueSet/SGDT-PrestazioniInfermieristiche",
							"code": "ALIM-03",
							"display": "Monitorare il peso corporeo"
						}
					]
				},
				"subject": {
					"reference": "Patient/84373e3d-26c4-40dd-a844-f52f18ba279f",
					"display": "Mario Rossi"
				},
				"occurrenceTiming": {
					"repeat": {
						"boundsPeriod": {
							"start": "2023-06-01T00:00:01+02:00",
							"end": "2023-06-02T23:59:59+02:00"
						},
						"frequency": 1,
						"period": 1,
						"periodUnit": "d"
					}
				},
				"reasonReference": [
					{
						"reference": "Condition/e84f46e5-9e71-49e5-89aa-96efbb59e4aa",
						"display": "Problema Infermieristico"
					}
				]
			}
		},
		{
			"fullUrl": "http://localhost:8480/api/enlist/fhir/ServiceRequest/8924c6d7-ab57-4e33-b281-2739a284d824",
			"resource": {
				"resourceType": "ServiceRequest",
				"id": "8924c6d7-ab57-4e33-b281-2739a284d824",
				"meta": {
					"versionId": "1",
					"lastUpdated": "2000-01-01T00:00:00.000+01:00",
					"profile": [
						"https://fhir.siss.regione.lombardia.it/StructureDefinition/RLServiceRequestInterventoEducazionale"
					]
				},
				"basedOn": [
					{
						"reference": "CarePlan/ea1c5d21-cf5b-49c8-bd6c-8f2f416cc42e",
						"display": "PROGETTO INDIVIDUALE: PI-202300000102"
					}
				],
				"status": "active",
				"intent": "order",
				"code": {
					"coding": [
						{
							"system": "https://fhir.siss.regione.lombardia.it/ValueSet/SGDT-InterventiEducazionali",
							"code": "EDU01",
							"display": "Alcool"
						}
					]
				},
				"subject": {
					"reference": "Patient/84373e3d-26c4-40dd-a844-f52f18ba279f",
					"display": "Mario Rossi"
				},
				"occurrencePeriod": {
					"start": "2023-04-30T04:00:00+02:00",
					"end": "2023-04-29T04:00:00+02:00"
				},
				"locationCode": [
					{
						"coding": [
							{
								"system": "https://fhir.siss.regione.lombardia.it/ValueSet/SGDT-ModalitaErogazioneIntEdu",
								"code": "INTEDU1",
								"display": "In presenza"
							}
						]
					}
				]
			}
		},
		{
			"fullUrl": "http://localhost:8480/api/enlist/fhir/PractitionerRole/73a71883-aae1-497b-9a70-16cae8a0cc22",
			"resource": {
				"resourceType": "PractitionerRole",
				"id": "73a71883-aae1-497b-9a70-16cae8a0cc22",
				"meta": {
					"versionId": "1",
					"lastUpdated": "2023-05-31T20:00:00.000+02:00",
					"profile": [
						"https://fhir.siss.regione.lombardia.it/StructureDefinition/RLPractitionerRoleOperatoreADI"
					]
				},
				"extension": [
					{
						"url": "https://fhir.siss.regione.lombardia.it/StructureDefinition/RLPractitionerRoleDettagliAttivazionePercorsoCure",
						"valueReference": {
							"reference": "ServiceRequest/d99a530e-f43a-4c1f-ade8-89dd43ec5dd5-2"
						}
					},
					{
						"url": "https://fhir.siss.regione.lombardia.it/StructureDefinition/RLPractitionerRoleNumeroAccessi",
						"valueInteger": 16
					}
				],
				"code": [
					{
						"coding": [
							{
								"system": "https://fhir.siss.regione.lombardia.it/ValueSet/SIAD-TipoOperatore",
								"code": "3",
								"display": "Infermiere"
							}
						]
					}
				]
			}
		},
		{
			"fullUrl": "http://localhost:8480/api/enlist/fhir/PractitionerRole/e00856f9-8186-4050-9171-850719e67e54",
			"resource": {
				"resourceType": "PractitionerRole",
				"id": "e00856f9-8186-4050-9171-850719e67e54",
				"meta": {
					"versionId": "1",
					"lastUpdated": "2023-05-31T20:00:00.000+02:00",
					"profile": [
						"https://fhir.siss.regione.lombardia.it/StructureDefinition/RLPractitionerRoleOperatoreADI"
					]
				},
				"extension": [
					{
						"url": "https://fhir.siss.regione.lombardia.it/StructureDefinition/RLPractitionerRoleDettagliAttivazionePercorsoCure",
						"valueReference": {
							"reference": "ServiceRequest/d99a530e-f43a-4c1f-ade8-89dd43ec5dd5-1"
						}
					},
					{
						"url": "https://fhir.siss.regione.lombardia.it/StructureDefinition/RLPractitionerRoleNumeroAccessi",
						"valueInteger": 4
					}
				],
				"code": [
					{
						"coding": [
							{
								"system": "https://fhir.siss.regione.lombardia.it/ValueSet/SIAD-TipoOperatore",
								"code": "3",
								"display": "Infermiere"
							}
						]
					}
				]
			}
		},
		{
			"fullUrl": "http://localhost:8480/api/enlist/fhir/MedicationRequest/b9e59ad5-9147-4e37-a3e7-1d6cc43f62e4",
			"resource": {
				"resourceType": "MedicationRequest",
				"id": "b9e59ad5-9147-4e37-a3e7-1d6cc43f62e4",
				"meta": {
					"versionId": "1",
					"lastUpdated": "2023-05-02T16:00:00.000+02:00",
					"profile": [
						"https://fhir.siss.regione.lombardia.it/StructureDefinition/RLMedicationRequestOssigenoterapia"
					]
				},
				"extension": [
					{
						"url": "https://fhir.siss.regione.lombardia.it/StructureDefinition/RLMedicationRequestConsegnaOssigenoDomicilio",
						"valueBoolean": true
					}
				],
				"status": "active",
				"intent": "order",
				"medicationCodeableConcept": {
					"coding": [
						{
							"system": "https://fhir.siss.regione.lombardia.it/ValueSet/SGDT-TipologiaOssigeno",
							"code": "OT3",
							"display": "Ossigeno Concentratore"
						}
					]
				},
				"subject": {
					"reference": "Patient/84373e3d-26c4-40dd-a844-f52f18ba279f",
					"display": "Mario Rossi"
				},
				"basedOn": [
					{
						"reference": "CarePlan/ea1c5d21-cf5b-49c8-bd6c-8f2f416cc42e",
						"display": "PROGETTO INDIVIDUALE: PI-202300000102"
					}
				],
				"dosageInstruction": [
					{
						"timing": {
							"repeat": {
								"boundsPeriod": {
									"start": "2023-05-02T16:00:00+02:00",
									"end": "2023-05-13T16:00:00+02:00"
								},
								"duration": 4.0,
								"durationUnit": "h"
							}
						},
						"doseAndRate": [
							{
								"doseQuantity": {
									"value": 45,
									"unit": "%FiO2"
								},
								"rateQuantity": {
									"value": 3,
									"unit": "L/min"
								}
							}
						]
					}
				]
			}
		},
		{
			"fullUrl": "http://localhost:8480/api/enlist/fhir/MedicationRequest/bec63903-5e38-4eae-9d08-c8eff4b73a13",
			"resource": {
				"resourceType": "MedicationRequest",
				"id": "bec63903-5e38-4eae-9d08-c8eff4b73a13",
				"meta": {
					"versionId": "1",
					"lastUpdated": "2023-05-02T12:00:00.000+02:00",
					"profile": [
						"https://fhir.siss.regione.lombardia.it/StructureDefinition/RLMedicationRequestTerapiaFarmacologica"
					]
				},
				"extension": [
					{
						"url": "https://fhir.siss.regione.lombardia.it/StructureDefinition/RLMedicationRequestConsegnaPaziente",
						"valueBoolean": true
					}
				],
				"status": "active",
				"intent": "order",
				"medicationCodeableConcept": {
					"coding": [
						{
							"system": "https://fhir.siss.regione.lombardia.it/ValueSet/DDC-Farmaco",
							"code": "CJC",
							"display": "AMOXICILLINA+ACIDO CLAVULANICO 80+11,4MG/ML 70ML USO ORALE"
						}
					]
				},
				"subject": {
					"reference": "Patient/84373e3d-26c4-40dd-a844-f52f18ba279f",
					"display": "Mario Rossi"
				},
				"basedOn": [
					{
						"reference": "CarePlan/ea1c5d21-cf5b-49c8-bd6c-8f2f416cc42e",
						"display": "PROGETTO INDIVIDUALE: PI-202300000102"
					}
				],
				"note": [
					{
						"text": "NOTE AMOXICILLINA+ACIDO CLAVULANICO 80+11,4MG/ML 70ML USO ORALE"
					}
				],
				"dosageInstruction": [
					{
						"timing": {
							"repeat": {
								"boundsPeriod": {
									"start": "2023-05-02T12:00:00+02:00",
									"end": "2023-05-06T12:00:00+02:00"
								},
								"frequency": 1,
								"period": 1,
								"periodUnit": "d"
							}
						},
						"doseAndRate": [
							{
								"doseQuantity": {
									"value": 1.0,
									"unit": "compresse"
								}
							}
						]
					}
				]
			}
		},
		{
			"fullUrl": "http://localhost:8480/api/enlist/fhir/DeviceRequest/6edf64b4-1594-4b99-ae1a-2d1bf90fea9b",
			"resource": {
				"resourceType": "DeviceRequest",
				"id": "6edf64b4-1594-4b99-ae1a-2d1bf90fea9b",
				"meta": {
					"versionId": "1",
					"lastUpdated": "2023-05-07T14:00:00.000+02:00",
					"profile": [
						"https://fhir.siss.regione.lombardia.it/StructureDefinition/RLDeviceRequestProtesiAusili"
					]
				},
				"extension": [
					{
						"url": "https://fhir.siss.regione.lombardia.it/StructureDefinition/RLDeviceRequestPrescrizioneElettronica",
						"valueBoolean": true
					}
				],
				"basedOn": [
					{
						"reference": "CarePlan/ea1c5d21-cf5b-49c8-bd6c-8f2f416cc42e",
						"display": "PROGETTO INDIVIDUALE: PI-202300000102"
					}
				],
				"status": "active",
				"intent": "order",
				"codeCodeableConcept": {
					"coding": [
						{
							"system": "https://fhir.siss.regione.lombardia.it/ValueSet/DDC-AusilioProtesi",
							"code": "060309007",
							"display": "BUSTO IN STOFFA ARMATA SU MISURA CON ALLACCIATURA CENTRALE CON PARTE ANTERIORE O LATERALE ELASTICA PER UOMO"
						}
					]
				},
				"subject": {
					"reference": "Patient/84373e3d-26c4-40dd-a844-f52f18ba279f",
					"display": "Mario Rossi"
				},
				"occurrencePeriod": {
					"start": "2023-05-07T14:00:00+02:00",
					"end": "2023-05-13T14:00:00+02:00"
				}
			}
		}
	]
}