{
    "resourceType": "Bundle",
    "id": "bundle-recupero-osservazioni-decorso-ospedaliero",
    "meta": {
        "lastUpdated": "2024-09-06T17:22:06.511+02:00"
    },
    "type": "searchset",
    "total": 1,
    "link": [
        {
        "relation": "self",
        "url": "baseUrl/Observation?code=8648-8&date=gt2020-01-01&date=lt2025-01-01&patient.identifier=RSSMRA80A01F205X&_has:Provenance:target:agent:_has:Organization.identifier=030712&_revinclude=Provenance:target&_include=observation:patient&_include=Observation:encounter&_include=PractitionerRole:practitioner &_include=PractitionerRole:organization"
        }
    ],
    "entry": [
        {
            "fullUrl": "baseUrl/Provenance/esempio-provenance-ldo",
            "resource": {
                "resourceType": "Provenance",
                "id": "esempio-provenance-ldo",
                "recorded": "2024-05-12",
                "target": [
                    {
                    "reference": "Observation/esempio-observation-ldo"
                    }
                ],
                "agent": [
                    {
                    "type": {
                        "coding": [
                        {
                            "system": "http://hl7.org/fhir/ValueSet/provenance-agent-type",
                            "code": "legal",
                            "display": "Legal Authenticator"
                        }
                        ]
                    },
                    "who": {
                        "reference": "Practitioner/esempio-practitioner-core-ldo"
                    }
                    },
                    {
                        "type": {
                        "coding": [
                        {
                            "system": "http://hl7.org/fhir/ValueSet/provenance-agent-type",
                            "code": "custodian",
                            "display": "Custodian"
                        }
                        ]
                    },
                    "who": {
                        "reference": "Organization/esempio-organization-core-ldo"
                    }
                    },
                    {
                    "type": {
                        "coding": [
                        {
                            "system": "http://hl7.org/fhir/ValueSet/provenance-agent-type",
                            "code": "author",
                            "display": "Author"
                        }
                        ]
                    },
                    "who": {
                        "reference": "PractitionerRole/esempio-practitionerRole-core-ldo"
                    }
                    },
                    {
                    "type": {
                        "coding": [
                        {
                            "system": "http://hl7.org/fhir/ValueSet/provenance-agent-type",
                            "code": "COPART",
                            "display": "co-participant"
                        }
                        ]
                    },
                    "who": {
                        "reference": "Practitioner/esempio-practitioner-core-ldo"
                    }
                    }
                ],
                "entity": [
                    {
                    "role": "source",
                    "what": {
                        "identifier": [
                            {
                                "system": "urn:oid:2.16.840.1.113883.2.9.2.99.4.4",
                                "value": "idCDA2root"
                            }
                        ]
                    }
                    }
                ]
            },
            "search": {
            "mode": "match"
            }
        },
        {
            "fullUrl": "baseUrl/Observation/esempio-observation-ldo",
            "resource": {
                "resourceType": "Observation",
                "id": "esempio-observation-ldo",
                "status": "final",
                "code": {
                    "coding": [
                    {
                        "code": "8648-8",
                        "display": "Decorso ospedaliero",
                        "system": "http://loinc.org"
                    }
                    ]
                },
                "subject": {
                    "reference": "Patient/e06086d8-a958-11ed-afa1-0242ac120002"
                },
                "effectivePeriod": {
                    "start": "2013-04-02T09:30:10+01:00"
                },
                "valueCodeableConcept": {
                    "coding": [
                    {
                        "code": "428.0",
                        "display": "Insufficienza cardiaca",
                        "system": "http://terminology.hl7.org/ValueSet/v3-DiagnosisICD9CM"
                    }
                    ]
                },
                "note":{
                    "text": "Condizioni generali: paziente vigile, orientato e collaborante."
                }
                },
                "search": {
                "mode": "match"
                }
        },  
        {
            "fullUrl": "baseUrl/Observation/esempio-observation2-ldo",
            "resource": {
                "resourceType": "Observation",
                "id": "esempio-observation2-ldo",
                "status": "final",
                "code": {
                    "coding": [
                    {
                        "code": "8648-8",
                        "display": "Decorso ospedaliero",
                        "system": "http://loinc.org"
                    }
                    ]
                },
                "subject": {
                    "reference": "Patient/e06086d8-a958-11ed-afa1-0242ac120002"
                },
                "effectivePeriod": {
                    "start": "2013-04-02T09:30:10+01:00"
                },
                "valueCodeableConcept": {
                    "coding": [
                    {
                        "code": "537.82",
                        "display": "Angiodisplasia duodeno",
                        "system": "http://terminology.hl7.org/ValueSet/v3-DiagnosisICD9CM"
                    }
                    ]
                },
                "note":{
                    "text": "Condizioni generali: paziente vigile, orientato e collaborante."
                }
                },
                "search": {
                "mode": "match"
                }
        },  
        {
            "fullUrl": "baseUrl/Patient/e06086d8-a958-11ed-afa1-0242ac120002",
            "resource": {
                "resourceType": "Patient",
                "id": "e06086d8-a958-11ed-afa1-0242ac120002",
                "meta": {
                "lastUpdated": "2023-01-11T08:32:56+01:00",
                "profile": [
                    "https://fhir.siss.regione.lombardia.it/StructureDefinition/RLPatientCore"
                ],
                "versionId": "1"
                },
                "identifier": [
                {
                    "system": "http://hl7.it/sid/codiceFiscale",
                    "value": "RSSMRA80A01F205X"
                }
                ],
                "active": true,
                "name": [
                {
                    "family": "Rossi",
                    "given": [
                    "Mario"
                    ]
                }
                ],
                "gender": "male",
                "birthDate": "1980-01-01",
                "address": [
                {
                    "use": "billing",
                    "city": "015146"
                }
                ],
                "maritalStatus": {
                    "coding": [
                        {
                        "system": "https://fhir.siss.regione.lombardia.it/ValueSet/SIAD-StatoCivile",
                        "code": "2",
                        "display": "Coniugato/a"
                        }
                    ]
                }
            },
            "search": {
              "mode": "match"
            }
        },
        {
            "fullUrl": "baseUrl/Organization/esempio-organization-core-ldo", 
            "resource": {
                "resourceType": "Organization",
                "id": "esempio-organization-core-ldo",
                "meta": {
                "lastUpdated": "2022-03-30T10:36:03.000+00:00",
                "profile": [
                "https://fhir.siss.regione.lombardia.it/StructureDefinition/RLOrganizationCore"
                ]
                },
                "identifier": [
                {
                    "system": "https://www.hl7.it/fhir/terminology/ValueSet/minsan-idStrutture",
                    "value": "030712"
                }
                ],
                "name": "Clinical Lab",
                "active": 1,
                "address": [
                {
                    "city": "Roma",
                    "line": [
                    "via Roma 1"
                    ]
                }
                ],
                "telecom": [
                    {
                        "system": "phone",
                        "value": "+1 555 234 1234"
                    },
                    {
                        "system": "email",
                        "value": "contact@labs.acme.org"
                    }
                ],
                "partOf": {
                    "reference": "Organization/esempio-Organization-core"
                }
            },
            "search": {
              "mode": "match"
            }
        },
        {
            "fullUrl": "baseUrl/PractitionerRole/esempio-practitionerRole-core-ldo", 
            "resource": {
                "resourceType": "PractitionerRole",
                "id": "esempio-practitionerRole-core-ldo",
                "meta": {
                "lastUpdated": "2023-01-11T08:32:56+01:00",
                "profile": [
                "https://fhir.siss.regione.lombardia.it/StructureDefinition/RLPractitionerRoleCore"
                ],
                "versionId": "1"
                },
                "identifier": [
                    {
                        "system": "http://hl7.it/sid/codiceFiscale",
                        "value": "PROVAX00X00X000Y"
                    },
                    {
                        "system": "https://fhir.siss.regione.lombardia.it/CodeSystem/HL7"
                    }
                ],
                "active": "true",
                "period": {
                    "start": "2012-01-01",
                    "end": "2013-03-31"
                },
                "practitioner": {
                    "reference": "Practitioner/esempio-practitioner-core-ldo"
                },
                "organization": {
                    "reference": "Organization/esempio-organization-core-ldo"
                },
                "code": [
                    {
                    "coding": [
                        {
                        "system": "http://terminology.hl7.org/CodeSystem/v2-0286",
                        "code": "RP"
                        }
                    ]
                    }
                ]
            },
            "search": {
              "mode": "match"
            }
        },
        {
            "fullUrl": "baseUrl/Practitioner/esempio-practitioner-core-ldo", 
            "resource": {
                "resourceType": "Practitioner",
                "id": "esempio-practitioner-core-ldo",
                "meta": {
                "lastUpdated": "2023-01-11T08:32:56+01:00",
                "profile": [
                "https://fhir.siss.regione.lombardia.it/StructureDefinition/RLPractitionerCore"
                ],
                "versionId": "1"
                },
                "identifier": [
                    {
                        "system": "http://hl7.it/sid/codiceFiscale",
                        "value": "PROVAX00X00X000Y"
                    },
                    {
                        "system": "https://fhir.siss.regione.lombardia.it/CodeSystem/HL7",
                        "value": "123456"
                    },
                    {
                        "system": "http://www.acme.com/identifiers/patient"
                    }
                ],
                "address": [
                    {
                        "city": "Roma",
                        "line": [
                            "via Roma 1"
                        ],
                        "postalCode": "00184",
                        "use": "home"
                    }
                ],
                "name": [
                    {
                        "family": "Esempio",
                        "given": [
                            "Test"
                        ]
                    }
                ]
            },
            "search": {
              "mode": "match"
            }
        }
    ]
}