{
    "resourceType": "Bundle",
    "id": "bundle-recupero-allergie-farmaceutiche",
    "meta": {
        "lastUpdated": "2024-09-06T17:22:06.511+02:00"
    },
    "type": "searchset",
    "total": 1,
    "link": [
        {
        "relation": "self",
        "url": "baseUrl/AllergyIntolerance?clinical-status=active&category=medication&last-date=2021-06-01&patient.identifier=RSSMRA80A01F205X&_has:Provenance:target:agent:_has:Organization.identifier=030712&_revinclude=Provenance:target&_include=AllergyIntolerance:patient&_include=PractitionerRole:practitioner &_include=PractitionerRole:organization"
        }
    ],
    "entry": [
        {
            "fullUrl": "baseUrl/Provenance/esempio-provenance-ldo",
            "resource": {
                "resourceType": "Provenance",
                "id": "esempio-provenance-ldo",
                "recorded": "2024-05-12",
                "target": [
                    {
                    "reference": "AllergyIntolerance/esempio-allergia-farmaci-ldo"
                    }
                ],
                "agent": [
                    {
                    "type": {
                        "coding": [
                        {
                            "system": "http://hl7.org/fhir/ValueSet/provenance-agent-type",
                            "code": "legal",
                            "display": "Legal Authenticator"
                        }
                        ]
                    },
                    "who": {
                        "reference": "Practitioner/esempio-practitioner-core-ldo"
                    }
                    },
                    {
                        "type": {
                        "coding": [
                        {
                            "system": "http://hl7.org/fhir/ValueSet/provenance-agent-type",
                            "code": "custodian",
                            "display": "Custodian"
                        }
                        ]
                    },
                    "who": {
                        "reference": "Organization/esempio-organization-core-ldo"
                    }
                    },
                    {
                    "type": {
                        "coding": [
                        {
                            "system": "http://hl7.org/fhir/ValueSet/provenance-agent-type",
                            "code": "author",
                            "display": "Author"
                        }
                        ]
                    },
                    "who": {
                        "reference": "PractitionerRole/esempio-practitionerRole-core-ldo"
                    }
                    },
                    {
                    "type": {
                        "coding": [
                        {
                            "system": "http://hl7.org/fhir/ValueSet/provenance-agent-type",
                            "code": "COPART",
                            "display": "co-participant"
                        }
                        ]
                    },
                    "who": {
                        "reference": "Practitioner/esempio-practitioner-core-ldo1"
                    }
                    }
                ],
                "entity": [
                    {
                    "role": "source",
                    "what": {
                        "identifier": [
                            {
                                "system": "urn:oid:2.16.840.1.113883.2.9.2.99.4.4",
                                "value": "idCDA2extension"
                            }
                        ]
                    }
                    }
                ]
            },
            "search": {
            "mode": "include"
            }
        },
        {
            "fullUrl": "baseUrl/AllergyIntolerance/esempio-allergia-farmaci-ldo", 
            "resource": {
                "resourceType": "AllergyIntolerance",
                "id": "esempio-allergia-farmaci-ldo",
                "clinicalStatus": {
                    "coding": [
                        {
                            "system": "http://terminology.hl7.org/CodeSystem/allergyintolerance-clinical",
                            "code": "active",
                            "display": "Active"
                        }
                    ]
                },
                "type": "allergy",
                "category": [
                    "medication"
                ],
                "criticality": "high",
                "code": {
                    "coding": [
                        {
                            "system": "https://fhir.siss.regione.lombardia.it/ValueSet/DDC-FarmacoAIC",
                            "code": "J01CE01",
                            "display": "BENZILPENICILLINA POTASSICA K24 PHARMACEUTICALS"
                        }
                    ]
                },
                "patient": {
                    "reference": "Patient/e06086d8-a958-11ed-afa1-0242ac120002"
                },
                "onsetPeriod": {
                    "start": "2010-03-01"
                },
                "recordedDate": "2010-03-01T14:58:00+11:00",
                "lastOccurrence": "2021-06-01",
                "note": [
                    {
                        "text": "Il paziente presenta prurito diffuso e un evidente eritema con sfogo cutaneo localizzato su braccia e torace."
                    }
                ],
                "reaction": [
                    {
                        "substance": {
                            "coding": [
                                {
                                    "system": "https://fhir.siss.regione.lombardia.it/ValueSet/DDC-FarmacoAIC",
                                    "code": "J01CE01",
                                    "display": "BENZILPENICILLINA POTASSICA K24 PHARMACEUTICALS"
                                }
                            ]
                        },
                        "manifestation": [
                            {
                                "coding": [
                                    {
                                        "system": "http://snomed.info/sct",
                                        "code": "247472004",
                                        "display": "Hives"
                                    }
                                ]
                            }
                        ],
                        "onset": "2010-03-01"
                    }
                ]
            },
            "search": {
              "mode": "match"
            }
        },    
        {
            "fullUrl": "baseUrl/Patient/e06086d8-a958-11ed-afa1-0242ac120002",
            "resource": {
                "resourceType": "Patient",
                "id": "e06086d8-a958-11ed-afa1-0242ac120002",
                "meta": {
                "lastUpdated": "2023-01-11T08:32:56+01:00",
                "profile": [
                    "https://fhir.siss.regione.lombardia.it/StructureDefinition/RLPatientCore"
                ],
                "versionId": "1"
                },
                "identifier": [
                {
                    "system": "http://hl7.it/sid/codiceFiscale",
                    "value": "RSSMRA80A01F205X"
                }
                ],
                "active": true,
                "name": [
                {
                    "family": "Rossi",
                    "given": [
                    "Mario"
                    ]
                }
                ],
                "gender": "male",
                "birthDate": "1980-01-01",
                "address": [
                {
                    "use": "billing",
                    "city": "015146"
                }
                ],
                "maritalStatus": {
                    "coding": [
                        {
                        "system": "https://fhir.siss.regione.lombardia.it/ValueSet/SIAD-StatoCivile",
                        "code": "2",
                        "display": "Coniugato/a"
                        }
                    ]
                }
            },
            "search": {
              "mode": "include"
            }
        },
        {
            "fullUrl": "baseUrl/Organization/esempio-organization-core-ldo", 
            "resource": {
                "resourceType": "Organization",
                "id": "esempio-organization-core-ldo",
                "meta": {
                "lastUpdated": "2022-03-30T10:36:03.000+00:00",
                "profile": [
                "https://fhir.siss.regione.lombardia.it/StructureDefinition/RLOrganizationCore"
                ]
                },
                "identifier": [
                {
                    "system": "https://www.hl7.it/fhir/terminology/ValueSet/minsan-idStrutture",
                    "value": "030712"
                }
                ],
                "name": "Clinical Lab",
                "active": 1,
                "address": [
                {
                    "city": "Roma",
                    "line": [
                    "via Roma 1"
                    ]
                }
                ],
                "telecom": [
                    {
                        "system": "phone",
                        "value": "+1 555 234 1234"
                    },
                    {
                        "system": "email",
                        "value": "contact@labs.acme.org"
                    }
                ],
                "partOf": {
                    "reference": "Organization/esempio-Organization-core"
                }
            },
            "search": {
              "mode": "include"
            }
        },
        {
            "fullUrl": "baseUrl/PractitionerRole/esempio-practitionerRole-core-ldo", 
            "resource": {
                "resourceType": "PractitionerRole",
                "id": "esempio-practitionerRole-core-ldo",
                "meta": {
                "lastUpdated": "2023-01-11T08:32:56+01:00",
                "profile": [
                "https://fhir.siss.regione.lombardia.it/StructureDefinition/RLPractitionerRoleCore"
                ],
                "versionId": "1"
                },
                "identifier": [
                    {
                        "system": "http://hl7.it/sid/codiceFiscale",
                        "value": "PROVAX00X00X000Y"
                    }
                ],
                "active": "true",
                "period": {
                    "start": "2012-01-01",
                    "end": "2013-03-31"
                },
                "practitioner": {
                    "reference": "Practitioner/esempio-practitioner-core-ldo"
                },
                "organization": {
                    "reference": "Organization/esempio-organization-core-ldo"
                },
                "code": [
                    {
                    "coding": [
                        {
                        "system": "http://terminology.hl7.org/CodeSystem/v2-0286",
                        "code": "RP"
                        }
                    ]
                    }
                ]
            },
            "search": {
              "mode": "include"
            }
        },
        {
            "fullUrl": "baseUrl/Practitioner/esempio-practitioner-core-ldo", 
            "resource": {
                "resourceType": "Practitioner",
                "id": "esempio-practitioner-core-ldo",
                "meta": {
                "lastUpdated": "2023-01-11T08:32:56+01:00",
                "profile": [
                "https://fhir.siss.regione.lombardia.it/StructureDefinition/RLPractitionerCore"
                ],
                "versionId": "1"
                },
                "identifier": [
                    {
                        "system": "http://hl7.it/sid/codiceFiscale",
                        "value": "PROVAX00X00X000Y"
                    }
                ],
                "address": [
                    {
                        "city": "Roma",
                        "line": [
                            "via Roma 1"
                        ],
                        "postalCode": "00184",
                        "use": "home"
                    }
                ],
                "name": [
                    {
                        "family": "Esempio",
                        "given": [
                            "Test"
                        ]
                    }
                ]
            },
            "search": {
              "mode": "include"
            }
        },
        {
            "fullUrl": "baseUrl/Practitioner/esempio-practitioner-core-ldo1", 
            "resource": {
                "resourceType": "Practitioner",
                "id": "esempio-practitioner-core-ldo1",
                "meta": {
                "lastUpdated": "2023-01-11T08:32:56+01:00",
                "profile": [
                "https://fhir.siss.regione.lombardia.it/StructureDefinition/RLPractitionerCore"
                ],
                "versionId": "1"
                },
                "identifier": [
                    {
                        "system": "http://hl7.it/sid/codiceFiscale",
                        "value": "AAABBX00X00X000Y"
                    }
                ],
                "address": [
                    {
                        "city": "Roma",
                        "line": [
                            "via Roma 1"
                        ],
                        "postalCode": "00184",
                        "use": "home"
                    }
                ],
                "name": [
                    {
                        "family": "Cognome",
                        "given": [
                            "Nome"
                        ]
                    }
                ]
            },
            "search": {
              "mode": "include"
            }
        }
    ]
}
            